time,IMU#,roll,pitch,yaw,accelx,accely,accelz,compassx,compassy,compassz
0.09,1,0.744,0.033,-1.604,1.574,7.666,1.453,-19.234,-42.536,-26.661
0.20,1,0.789,0.064,-1.444,1.578,7.648,1.492,-20.284,-44.036,-24.711
0.29,1,0.883,0.102,-1.393,1.615,7.639,1.475,-20.134,-43.136,-25.761
0.41,1,0.948,0.064,-1.342,1.576,7.705,1.443,-19.984,-43.286,-26.211
0.51,1,0.980,0.003,-1.492,1.605,7.652,1.480,-20.584,-44.336,-26.511
0.62,1,0.992,-0.079,-1.693,1.590,7.676,1.436,-20.584,-43.436,-25.761
0.71,1,0.987,-0.136,-1.920,1.662,7.684,1.457,-19.984,-41.786,-26.211
0.81,1,0.986,-0.190,-2.001,1.693,7.654,1.447,-21.484,-42.086,-25.911
0.92,1,1.048,-0.206,-1.948,1.658,7.660,1.508,-20.884,-42.386,-25.311
1.02,1,1.080,-0.212,-1.874,1.617,7.705,1.414,-21.034,-42.836,-25.461
1.14,1,1.115,-0.191,-1.903,1.592,7.645,1.449,-20.734,-43.736,-25.911
1.24,1,1.165,-0.184,-1.809,1.580,7.684,1.373,-19.834,-44.336,-25.311
1.34,1,1.191,-0.197,-1.954,1.645,7.646,1.475,-21.484,-42.836,-25.911
1.45,1,1.206,-0.217,-2.023,1.664,7.713,1.426,-21.484,-43.286,-25.911
1.55,1,1.208,-0.265,-2.169,1.623,7.617,1.422,-20.884,-43.436,-25.311
1.66,1,1.169,-0.346,-2.440,1.713,7.723,1.398,-22.084,-43.886,-25.011
1.76,1,1.155,-0.381,-2.634,1.781,7.670,1.496,-19.984,-44.486,-23.961
1.87,1,1.171,-0.319,-2.393,1.691,7.686,1.404,-19.984,-44.036,-25.161
1.97,1,1.201,-0.177,-2.180,1.643,7.717,1.451,-19.534,-43.736,-24.411
2.08,1,1.231,-0.049,-2.131,1.682,7.635,1.379,-20.884,-44.636,-25.761
2.17,1,1.300,0.090,-2.206,1.654,7.684,1.512,-19.834,-42.686,-25.011
2.28,1,1.306,0.170,-2.086,1.604,7.674,1.459,-20.284,-42.536,-25.161
2.39,1,1.270,0.340,-1.817,1.498,7.734,1.617,-21.034,-43.286,-24.411
2.49,1,1.153,0.615,-1.494,1.576,7.680,1.432,-19.984,-42.836,-25.911
2.60,1,1.184,0.862,-1.316,1.619,7.652,1.473,-21.334,-44.636,-25.311
2.70,1,1.196,0.949,-1.241,1.576,7.615,1.613,-19.834,-43.436,-27.111
2.81,1,1.226,1.059,-1.089,1.521,7.615,1.469,-19.834,-42.686,-26.811
2.92,1,1.337,1.168,-0.915,1.520,7.717,1.518,-20.134,-43.886,-27.561
3.02,1,1.301,1.131,-0.892,1.459,7.691,1.553,-20.134,-43.436,-24.561
3.11,1,1.302,1.156,-0.922,1.521,7.674,1.547,-17.584,-44.336,-23.811
3.22,1,1.310,1.077,-0.992,1.516,7.648,1.562,-19.234,-43.286,-26.211
3.33,1,1.315,0.966,-1.188,1.541,7.643,1.588,-19.084,-44.336,-25.761
3.43,1,1.474,0.919,-1.281,1.639,7.688,1.643,-19.084,-43.436,-26.811
3.54,1,1.670,1.140,-0.790,1.645,7.635,1.514,-19.834,-43.136,-26.061
3.64,1,1.635,0.945,-0.371,1.270,7.693,1.443,-19.834,-42.686,-27.561
3.76,1,1.737,0.672,-0.879,1.611,7.707,1.469,-19.534,-44.036,-25.161
3.86,1,1.706,0.384,-1.388,1.584,7.641,1.506,-19.234,-42.536,-27.411
3.96,1,1.687,0.109,-1.396,1.545,7.732,1.473,-19.534,-42.536,-26.211
4.07,1,1.737,0.017,-1.632,1.736,7.811,1.467,-18.784,-43.286,-24.411
4.17,1,1.587,-0.038,-1.623,1.701,7.820,1.576,-20.134,-43.436,-26.511
4.27,1,1.381,0.130,-1.206,1.703,7.787,1.422,-19.534,-44.036,-25.461
4.37,1,1.571,0.727,-0.515,1.525,7.742,1.703,-19.834,-45.086,-25.311
4.48,1,1.520,1.605,0.615,1.377,8.041,1.578,-18.784,-45.236,-25.461
4.57,1,1.438,2.502,1.822,1.574,7.316,1.453,-19.833,-44.331,-27.863
4.68,1,1.219,2.807,2.538,1.246,7.566,1.482,-17.583,-43.881,-27.863
4.79,1,1.178,3.051,3.053,1.047,7.637,1.990,-16.084,-44.331,-27.863
4.91,1,0.735,3.928,3.352,0.770,8.139,2.650,-16.834,-42.381,-29.063
5.00,1,-0.093,6.050,2.399,0.736,7.973,2.799,-16.084,-42.381,-28.613
5.11,1,-1.212,9.409,1.583,0.713,8.020,2.861,-16.533,-42.380,-33.113
5.22,1,-2.698,13.711,1.191,0.627,7.961,3.191,-12.633,-40.580,-34.763
5.32,1,-3.571,19.444,2.408,0.316,7.705,3.855,-9.483,-37.882,-38.063
5.42,1,-4.500,25.970,3.780,-0.709,7.328,4.084,-4.091,-34.870,-39.709
5.52,1,-6.444,31.819,2.538,-0.992,6.602,4.146,-0.939,-32.322,-43.609
5.63,1,-8.623,37.096,1.211,-1.820,6.049,4.621,1.465,-29.174,-45.860
5.74,1,-10.383,42.330,0.531,-2.203,5.734,5.338,4.158,-25.870,-47.957
5.84,1,-11.129,47.466,1.677,-2.937,5.033,5.594,9.114,-22.272,-49.007
5.94,1,-11.862,52.422,2.406,-3.619,4.730,5.656,12.114,-19.272,-49.007
6.04,1,-14.108,57.036,0.686,-3.662,4.240,5.445,14.933,-14.461,-49.904
6.14,1,-15.654,61.603,-1.186,-3.947,3.586,5.725,14.787,-12.662,-50.504
6.27,1,-16.806,66.385,-3.262,-4.389,3.145,6.471,18.987,-7.262,-50.204
6.37,1,-21.647,71.376,-8.650,-4.881,2.461,6.846,20.640,-6.962,-49.153
6.47,1,-37.585,75.226,-23.990,-4.828,1.617,6.688,20.463,0.242,-48.257
6.57,1,-62.841,76.431,-47.392,-4.602,0.836,5.928,20.760,4.592,-49.007
6.68,1,-85.104,76.353,-67.682,-4.543,-0.080,5.674,20.019,9.993,-48.705
6.79,1,-103.371,75.749,-84.616,-4.793,-0.670,5.439,20.764,13.892,-47.206
6.89,1,-115.725,74.007,-95.969,-4.963,-1.215,5.605,19.390,18.086,-47.065
7.00,1,-124.213,71.630,-103.963,-5.012,-1.521,5.926,19.359,23.173,-46.630
7.10,1,-129.923,68.926,-109.201,-5.271,-1.932,6.389,19.052,22.718,-46.335
7.19,1,-135.249,65.716,-114.052,-5.139,-2.512,6.434,16.802,26.168,-44.835
7.30,1,-140.676,61.896,-118.845,-4.518,-3.135,5.602,16.348,29.765,-43.339
7.41,1,-144.462,57.938,-121.575,-4.250,-3.875,5.045,14.533,33.640,-40.061
7.52,1,-147.911,54.483,-124.336,-4.207,-4.266,4.684,13.339,36.350,-38.101
7.62,1,-151.250,51.663,-127.586,-4.391,-4.674,4.326,11.082,37.978,-35.872
7.72,1,-152.991,49.051,-129.556,-4.344,-4.775,4.088,13.032,40.678,-34.072
7.82,1,-153.150,46.505,-130.276,-3.648,-4.902,3.730,10.632,41.878,-33.772
7.93,1,-153.324,44.797,-131.400,-3.910,-5.168,3.908,9.585,42.654,-33.296
8.04,1,-152.995,43.699,-131.891,-3.617,-5.734,4.064,8.385,43.104,-32.996
8.15,1,-152.493,42.863,-131.841,-3.330,-5.594,4.178,7.635,41.904,-33.296
8.24,1,-152.369,42.516,-131.926,-3.617,-5.713,4.027,7.935,42.804,-32.396
8.35,1,-152.063,42.397,-131.781,-3.609,-5.754,4.184,8.089,42.640,-33.006
8.46,1,-151.628,42.627,-131.588,-3.867,-5.610,4.467,7.339,42.640,-34.506
8.56,1,-151.343,42.686,-131.645,-3.719,-5.489,4.637,6.589,43.090,-34.056
8.66,1,-151.498,42.669,-131.622,-3.840,-5.638,4.498,6.739,42.490,-33.906
8.76,1,-152.395,42.825,-132.421,-3.939,-5.544,4.045,8.689,43.240,-32.406
8.88,1,-152.762,42.846,-132.681,-3.900,-5.591,4.166,8.689,42.790,-32.856
8.99,1,-152.787,42.931,-132.378,-3.835,-5.494,4.198,8.089,41.440,-33.756
9.09,1,-152.534,43.125,-131.198,-4.076,-5.591,4.027,9.589,43.840,-31.806
9.19,1,-152.292,43.475,-130.637,-4.227,-5.310,4.127,7.939,42.040,-32.856
9.30,1,-151.758,43.801,-130.207,-4.064,-5.370,4.432,10.189,41.590,-33.456
9.41,1,-151.658,44.113,-130.580,-4.402,-5.399,4.479,9.739,42.041,-32.856
9.51,1,-151.749,44.142,-131.290,-4.205,-5.442,4.727,10.339,41.891,-33.756
9.61,1,-151.843,43.684,-131.503,-3.795,-5.440,4.486,10.189,41.591,-32.856
9.72,1,-152.016,43.202,-131.409,-3.986,-5.489,4.146,9.739,41.291,-32.856
9.83,1,-152.258,42.966,-131.565,-3.930,-5.513,4.125,8.989,43.991,-32.856
9.92,1,-152.476,42.885,-131.690,-4.064,-5.431,4.080,9.139,41.891,-33.756
10.01,1,-152.512,42.890,-131.520,-4.016,-5.392,4.186,8.839,42.191,-31.806
10.12,1,-152.484,43.023,-131.153,-4.088,-5.540,4.203,10.489,43.241,-33.456
10.22,1,-152.348,43.018,-130.999,-4.031,-5.409,4.313,9.589,43.091,-33.006
10.33,1,-152.312,42.871,-130.864,-3.937,-5.499,4.195,8.689,42.041,-33.156
10.46,1,-152.483,42.898,-130.388,-4.080,-5.577,4.170,9.889,41.441,-31.806
10.56,1,-152.757,42.960,-130.424,-4.074,-5.454,4.186,9.889,41.441,-32.256
10.65,1,-153.145,43.126,-130.661,-4.221,-5.394,3.984,10.339,41.891,-33.306
10.76,1,-153.420,43.316,-130.879,-4.172,-5.415,4.150,9.889,43.091,-33.006
10.86,1,-153.599,43.408,-131.133,-4.168,-5.466,4.088,9.439,43.241,-33.156
10.96,1,-153.578,43.474,-131.004,-4.369,-5.526,4.207,11.089,42.641,-31.806
11.06,1,-153.652,43.371,-131.168,-4.197,-5.478,4.043,10.339,43.391,-33.006
11.17,1,-153.560,43.354,-131.078,-4.260,-5.501,4.164,10.489,40.541,-33.456
11.27,1,-153.533,43.432,-131.059,-4.131,-5.397,4.215,11.389,42.191,-32.556
11.38,1,-153.555,43.419,-131.138,-4.131,-5.491,4.184,11.689,42.491,-32.406
11.48,1,-153.582,43.399,-130.786,-4.041,-5.530,4.014,13.039,42.191,-33.006
11.59,1,-153.814,43.764,-130.424,-5.059,-5.417,3.855,11.839,42.191,-33.006
11.69,1,-153.402,43.650,-130.578,-4.396,-5.382,3.924,11.839,42.191,-32.256
11.80,1,-152.687,43.504,-130.708,-4.018,-5.392,4.129,12.139,40.241,-32.256
11.90,1,-152.182,43.543,-130.816,-4.238,-5.386,4.307,9.139,42.641,-35.256
12.01,1,-151.749,43.411,-130.767,-4.193,-5.382,4.420,8.989,41.291,-34.206
12.10,1,-151.293,42.991,-130.504,-3.941,-5.415,4.309,10.489,40.841,-32.406
12.21,1,-151.011,42.716,-130.242,-3.734,-5.544,4.063,11.089,43.091,-34.056
12.33,1,-150.771,42.814,-129.878,-4.139,-5.399,4.133,10.189,42.791,-32.406
12.43,1,-150.685,42.986,-130.260,-4.576,-5.431,4.924,8.689,40.841,-34.656
12.54,1,-150.616,42.340,-130.556,-3.707,-5.403,4.303,9.589,41.441,-35.556
12.64,1,-150.633,41.867,-130.483,-3.740,-5.522,3.904,8.989,42.041,-34.206
12.74,1,-150.268,41.919,-129.922,-4.445,-5.688,3.584,8.239,43.241,-35.406
12.85,1,-149.689,42.169,-130.387,-3.535,-5.632,4.076,8.689,42.041,-34.956
12.96,1,-149.042,42.903,-129.977,-3.525,-5.622,4.047,9.739,40.841,-34.956
13.05,1,-148.147,44.212,-129.212,-4.660,-5.155,3.834,9.589,41.891,-35.856
13.16,1,-146.443,45.555,-129.147,-3.754,-5.021,4.236,8.389,38.741,-37.356
13.27,1,-144.657,47.620,-128.769,-3.729,-4.862,4.754,9.742,36.163,-37.974
13.36,1,-143.300,50.267,-128.802,-4.064,-4.556,4.783,11.842,35.563,-40.374
13.47,1,-141.593,53.105,-128.582,-4.408,-4.073,4.955,12.743,33.018,-40.971
13.58,1,-139.248,56.176,-127.252,-4.611,-3.464,5.053,13.043,30.018,-42.921
13.67,1,-135.652,59.185,-124.445,-4.701,-3.024,5.314,14.835,27.308,-43.679
13.79,1,-130.001,61.916,-119.534,-4.258,-2.440,5.795,14.685,25.208,-46.079
13.90,1,-123.482,64.975,-112.888,-4.576,-1.901,5.811,16.484,21.607,-47.280
13.99,1,-113.956,67.337,-102.882,-4.193,-1.267,5.438,16.941,18.160,-49.076
14.10,1,-99.122,68.190,-87.720,-2.570,-0.032,5.395,17.093,14.111,-49.975
14.21,1,-78.772,70.491,-66.460,-4.895,0.860,6.063,17.704,7.213,-50.274
14.30,1,-56.565,68.532,-43.300,-4.570,2.204,6.424,16.195,-1.485,-50.871
14.41,1,-39.687,64.965,-25.560,-5.273,3.022,6.533,16.501,-5.386,-51.321
14.52,1,-30.635,59.560,-16.211,-4.113,3.671,6.109,14.535,-10.631,-50.421
14.61,1,-23.895,53.959,-9.156,-3.391,4.532,5.646,12.588,-17.082,-50.421
14.74,1,-18.783,47.518,-2.863,-2.574,5.558,5.211,10.330,-21.878,-47.120
14.83,1,-15.264,40.326,2.088,-2.607,6.519,5.107,5.364,-26.520,-46.667
14.94,1,-14.937,32.953,4.849,-2.840,6.884,5.801,3.104,-30.865,-45.616
15.04,1,-14.027,27.912,6.365,-2.123,6.888,5.381,-1.396,-33.115,-42.916
15.14,1,-12.124,24.994,7.685,-1.033,7.132,4.428,-2.296,-34.465,-41.266
15.25,1,-9.965,22.668,9.617,-0.547,7.284,3.611,-3.502,-37.309,-40.214
15.35,1,-7.996,20.009,11.256,-0.074,7.462,3.064,-3.502,-38.809,-38.714
15.46,1,-6.615,16.809,13.074,-0.258,7.876,2.930,-4.858,-40.152,-35.864
15.57,1,-5.607,13.529,14.394,-0.156,7.646,2.459,-7.258,-41.952,-34.664
15.66,1,-4.379,10.446,14.634,-0.160,7.679,1.830,-8.912,-42.096,-33.315
15.77,1,-3.911,6.267,10.692,0.996,8.169,1.994,-11.162,-44.496,-32.265
15.88,1,-3.355,2.317,7.037,1.189,7.720,1.527,-14.614,-44.038,-27.768
15.97,1,-2.744,-0.843,6.401,0.840,7.491,1.453,-18.064,-45.088,-25.068
16.08,1,-1.578,-3.368,0.319,1.590,8.317,1.672,-20.016,-45.089,-21.613
16.19,1,-1.033,-3.180,-0.410,1.711,7.870,0.406,-21.816,-44.639,-21.613
16.30,1,-0.895,-2.659,0.377,1.773,7.575,0.662,-21.816,-45.089,-21.013
16.41,1,-0.744,-2.635,1.710,1.645,7.657,1.168,-19.716,-44.489,-22.213
16.50,1,-0.784,-2.070,3.329,1.266,7.921,1.342,-19.716,-45.689,-24.013
16.61,1,-0.896,-1.742,3.273,2.029,7.552,0.854,-19.566,-44.639,-23.113
16.72,1,-0.664,-1.620,3.258,1.687,7.673,1.115,-19.566,-45.839,-23.113
16.81,1,-0.382,-1.394,3.314,1.543,7.862,1.371,-19.566,-45.389,-22.813
16.92,1,-0.278,-1.168,3.798,1.275,7.847,1.072,-20.466,-44.939,-23.713
17.02,1,-0.288,-1.169,4.515,1.713,7.864,1.113,-20.466,-44.939,-23.713
17.13,1,-0.315,-1.206,5.091,1.787,7.835,1.145,-17.766,-45.389,-24.313
17.23,1,-0.462,-1.361,5.630,1.172,7.646,0.982,-20.316,-45.389,-23.563
17.34,1,-0.628,-1.536,6.045,0.920,7.647,0.854,-20.316,-44.639,-24.313
17.45,1,-0.608,-1.657,6.388,1.461,7.679,1.000,-18.516,-45.089,-25.363
17.56,1,-0.489,-1.719,6.585,1.527,7.763,1.018,-17.916,-44.939,-22.963
17.65,1,-0.479,-1.863,6.419,1.471,7.712,1.146,-19.566,-45.389,-23.863
17.76,1,-0.406,-1.997,5.783,1.666,7.690,1.088,-19.266,-45.089,-25.813
17.87,1,-0.259,-2.087,5.427,1.658,7.729,1.129,-18.816,-44.639,-24.313
17.96,1,-0.212,-2.114,5.423,1.639,7.731,1.072,-19.267,-45.090,-25.060
18.07,1,-0.105,-2.093,5.414,1.590,7.751,1.064,-19.267,-45.840,-25.360
18.18,1,-0.004,-2.073,5.401,1.602,7.778,1.092,-20.167,-44.940,-24.760
