time,IMU#,roll,pitch,yaw,accelx,accely,accelz,compassx,compassy,compassz
0.04,1,0.209,0.564,-0.028,1.768,7.775,0.584,-3.150,-31.500,-47.850
0.16,1,0.219,0.564,-0.013,1.721,7.764,0.549,-3.300,-32.400,-48.750
0.26,1,0.207,0.449,0.033,1.629,7.766,0.600,-2.250,-31.950,-48.750
0.36,1,0.192,0.436,0.106,1.646,7.756,0.545,-2.400,-30.600,-49.050
0.48,1,0.238,0.540,0.124,1.689,7.805,0.541,-3.300,-31.650,-47.700
0.58,1,0.253,0.629,0.132,1.707,7.811,0.580,-3.150,-32.250,-49.050
0.68,1,0.210,0.546,0.042,1.701,7.752,0.627,-2.250,-30.000,-49.200
0.78,1,0.115,0.438,-0.011,1.555,7.785,0.604,-2.700,-32.250,-47.550
0.89,1,0.061,0.496,0.043,1.711,7.877,0.717,-3.900,-31.050,-48.600
0.99,1,-0.236,0.341,-0.187,1.703,7.725,0.717,-3.450,-31.500,-49.050
1.09,1,-0.481,0.377,-0.145,1.781,7.736,0.500,-2.400,-29.850,-49.050
1.19,1,-0.525,0.404,0.192,1.709,7.727,0.717,-0.900,-32.250,-49.050
1.29,1,-0.604,0.221,0.178,1.654,7.750,0.752,-3.450,-33.000,-49.350
1.41,1,-0.729,0.137,0.143,1.715,7.727,0.715,-2.700,-32.550,-49.800
1.52,1,-0.877,0.115,0.100,1.781,7.783,0.811,-3.450,-32.550,-49.350
1.62,1,-1.048,0.000,-0.277,1.887,7.662,0.600,-1.800,-32.850,-49.200
1.72,1,-0.982,-0.295,-0.325,1.783,7.662,0.768,-3.300,-30.450,-48.750
1.82,1,-0.988,-0.599,-0.303,1.795,7.754,0.922,-3.750,-32.400,-49.950
1.92,1,-1.321,-0.962,-0.366,1.820,7.781,0.707,-4.050,-28.950,-48.450
2.04,1,-1.615,-1.201,-0.345,1.740,7.734,0.783,-2.700,-29.850,-49.050
2.14,1,-1.720,-1.059,-0.141,1.652,7.754,0.734,-3.450,-30.600,-49.050
2.24,1,-1.667,-0.624,-0.038,1.842,7.746,0.795,-3.150,-31.050,-49.800
2.36,1,-1.518,-0.307,-0.045,1.854,7.705,0.848,-4.050,-30.450,-49.200
2.46,1,-1.410,-0.113,-0.024,1.939,7.770,0.895,-4.950,-30.300,-51.150
2.56,1,-1.465,-0.225,-0.245,1.725,7.752,0.830,-3.450,-31.050,-49.350
2.66,1,-1.509,-0.270,-0.379,1.691,7.721,0.730,-3.150,-30.300,-49.050
2.78,1,-1.419,-0.221,-0.491,1.764,7.801,0.736,-3.900,-30.600,-49.350
2.88,1,-1.274,-0.258,-0.627,1.746,7.791,0.811,-3.900,-30.300,-49.050
2.98,1,-1.207,-0.313,-0.788,1.777,7.746,0.867,-4.050,-30.900,-48.450
3.08,1,-1.234,-0.337,-0.819,1.896,7.771,0.818,-3.750,-31.650,-49.500
3.19,1,-1.300,-0.454,-0.734,1.871,7.701,0.834,-4.050,-30.900,-51.000
3.29,1,-1.341,-0.710,-0.678,1.863,7.676,0.799,-3.150,-29.100,-49.800
3.39,1,-1.408,-0.833,-0.559,1.799,7.744,0.787,-4.500,-30.450,-49.500
3.49,1,-1.493,-0.788,-0.547,1.680,7.648,0.840,-3.150,-31.050,-49.350
3.61,1,-1.508,-0.495,-0.559,1.764,7.752,0.803,-4.050,-29.700,-49.200
3.71,1,-1.415,-0.174,-0.601,1.908,7.705,0.795,-4.050,-31.200,-50.250
3.81,1,-1.237,-0.074,-0.574,1.812,7.688,0.842,-3.450,-31.050,-48.600
3.92,1,-1.090,-0.156,-0.610,1.764,7.752,0.771,-3.450,-30.600,-49.350
4.03,1,-0.966,-0.169,-0.610,1.729,7.768,0.799,-4.500,-31.200,-48.450
4.12,1,-0.905,-0.065,-0.620,1.754,7.740,0.807,-3.450,-32.550,-50.850
4.22,1,-0.871,0.064,-0.676,1.748,7.797,0.703,-3.750,-31.950,-50.250
4.34,1,-0.863,0.229,-0.687,1.746,7.857,0.748,-3.000,-30.900,-49.500
4.44,1,-0.967,0.453,-0.600,1.662,7.758,0.926,-2.400,-29.550,-47.100
4.55,1,-1.364,0.742,-0.673,1.744,7.789,0.824,-2.400,-32.250,-49.350
4.64,1,-1.792,1.107,-0.521,1.652,7.752,0.754,-3.900,-32.250,-49.800
4.76,1,-2.116,1.341,-0.427,1.648,7.813,0.873,-1.200,-30.300,-50.100
4.86,1,-2.541,1.604,-0.332,1.432,8.115,1.088,-1.050,-31.650,-50.700
4.96,1,-3.297,1.980,-0.218,1.225,7.813,1.143,-2.400,-31.050,-51.600
5.07,1,-4.306,3.144,-0.254,1.396,7.961,1.289,-0.150,-30.600,-52.350
5.18,1,-5.591,4.204,-0.438,1.117,8.002,1.477,1.200,-30.600,-52.350
5.28,1,-7.190,5.418,-0.596,0.934,8.098,1.871,1.650,-31.500,-54.150
5.38,1,-9.271,7.186,-0.767,0.590,7.898,2.352,2.550,-29.250,-54.300
5.48,1,-12.142,9.032,-1.553,0.578,8.039,2.469,5.250,-28.500,-57.750
5.59,1,-15.551,10.543,-2.862,0.289,7.779,2.660,5.400,-27.900,-59.700
5.69,1,-19.149,11.958,-4.378,-0.162,7.801,3.141,6.600,-26.400,-61.950
5.81,1,-22.861,14.074,-5.551,-0.410,6.992,3.439,9.600,-25.950,-64.200
5.91,1,-26.490,16.591,-6.612,-0.920,6.961,4.053,12.150,-23.550,-65.700
6.01,1,-30.642,17.731,-9.163,-1.010,7.002,4.662,13.200,-21.450,-68.850
6.12,1,-34.937,19.443,-10.764,-1.062,6.404,4.619,14.700,-18.000,-71.400
6.23,1,-39.092,20.164,-12.815,-1.369,6.191,5.305,14.850,-13.500,-72.750
6.33,1,-43.137,21.340,-14.348,-1.805,5.967,5.775,16.200,-13.950,-75.450
6.43,1,-47.477,22.889,-16.025,-1.982,5.414,5.719,17.250,-10.950,-75.450
6.54,1,-52.025,23.902,-18.031,-2.049,4.781,5.609,19.950,-9.000,-76.650
6.64,1,-55.908,24.279,-19.705,-2.258,4.156,5.643,21.600,-5.250,-79.050
6.76,1,-58.826,24.550,-21.176,-2.510,3.850,6.486,21.600,-3.300,-79.800
6.87,1,-61.571,25.598,-22.617,-2.545,3.641,6.902,22.350,-0.450,-80.100
6.97,1,-64.783,25.975,-24.154,-2.871,3.234,6.785,23.550,0.450,-81.600
7.07,1,-67.678,25.612,-25.471,-2.881,2.703,6.301,24.300,4.500,-80.850
7.17,1,-69.416,25.394,-26.547,-2.742,2.590,6.609,21.600,6.450,-80.850
7.27,1,-70.543,25.190,-27.258,-2.830,2.414,6.752,23.850,6.450,-82.650
7.37,1,-71.269,25.428,-27.735,-2.926,2.189,7.160,22.950,7.350,-81.000
7.47,1,-71.917,25.589,-28.185,-2.947,2.201,6.883,24.300,6.750,-82.650
7.60,1,-72.213,25.767,-28.661,-3.061,2.219,6.859,22.950,8.550,-81.750
7.70,1,-72.208,25.256,-29.058,-3.045,2.807,7.369,23.700,9.000,-80.700
7.78,1,-72.545,25.236,-29.668,-2.836,2.654,7.617,25.650,7.800,-82.200
7.90,1,-73.728,25.012,-30.113,-3.146,2.209,7.361,23.550,8.400,-80.850
8.00,1,-75.244,24.894,-30.872,-2.996,1.830,6.939,23.550,10.350,-81.600
8.10,1,-76.344,24.870,-31.467,-2.732,1.715,6.953,24.450,11.250,-83.250
8.20,1,-76.816,24.250,-31.306,-2.771,1.836,7.184,22.500,12.000,-81.450
8.31,1,-77.090,24.173,-30.968,-3.035,1.758,7.156,24.150,11.700,-82.950
8.41,1,-77.209,24.673,-30.815,-3.406,1.850,7.000,22.350,12.300,-80.850
8.51,1,-77.117,25.331,-30.661,-3.064,1.750,7.486,25.650,11.250,-81.750
8.61,1,-77.155,25.303,-30.189,-3.348,1.754,7.057,25.650,11.700,-82.200
8.72,1,-77.296,25.501,-30.058,-3.334,1.887,7.057,25.950,11.250,-82.200
8.84,1,-77.432,25.661,-30.050,-3.391,1.645,6.957,26.850,12.300,-81.900
8.95,1,-77.405,25.411,-30.015,-3.357,1.777,7.188,26.550,11.400,-81.900
9.05,1,-77.482,25.350,-30.009,-3.301,1.818,7.184,26.100,11.850,-81.600
9.15,1,-77.591,25.152,-29.941,-3.158,1.680,7.008,26.100,11.400,-81.900
9.25,1,-77.515,25.112,-29.906,-3.254,1.727,6.891,24.900,10.500,-81.000
9.37,1,-77.122,25.614,-29.606,-3.145,2.047,7.322,26.550,11.850,-82.350
9.47,1,-76.939,25.256,-28.999,-3.670,1.975,7.047,25.650,12.000,-80.250
9.57,1,-77.032,24.700,-29.065,-3.279,2.049,7.102,24.600,10.350,-82.350
9.67,1,-77.028,24.029,-28.723,-3.180,1.785,6.969,25.050,10.350,-81.900
9.77,1,-76.971,24.060,-28.439,-3.293,1.818,7.000,25.050,11.850,-82.350
9.87,1,-76.752,23.625,-28.169,-3.086,1.727,7.035,24.450,12.000,-80.700
9.97,1,-76.399,23.378,-27.905,-3.000,1.490,6.727,25.650,11.700,-82.950
10.09,1,-75.159,21.660,-27.437,-2.076,1.613,5.816,22.350,11.400,-82.350
10.19,1,-71.203,20.801,-25.712,-2.451,2.201,6.824,22.800,6.750,-83.100
10.29,1,-66.435,20.220,-23.769,-2.172,3.037,6.898,21.750,3.450,-81.450
10.40,1,-61.425,19.860,-21.434,-2.133,3.662,6.672,20.250,2.700,-79.500
10.50,1,-56.244,18.748,-18.948,-2.102,4.439,5.982,21.000,-1.500,-80.250
10.62,1,-50.529,17.658,-16.811,-1.377,5.160,5.244,17.700,-7.800,-77.250
10.72,1,-43.965,15.927,-14.076,-1.754,5.738,5.328,17.100,-12.300,-75.600
10.82,1,-37.334,14.169,-11.403,-1.760,6.590,4.998,14.100,-16.950,-72.750
10.92,1,-31.369,12.109,-9.951,-1.305,6.975,4.574,11.400,-21.300,-70.050
11.03,1,-26.098,10.384,-9.631,-0.650,7.293,3.877,9.600,-23.250,-67.500
11.13,1,-21.194,8.790,-9.691,-0.494,7.641,3.127,7.650,-27.150,-63.000
11.23,1,-16.637,7.105,-10.785,0.490,7.814,2.598,4.800,-28.050,-59.550
11.33,1,-12.605,6.100,-10.449,0.523,7.104,2.223,4.200,-30.600,-55.650
11.45,1,-8.796,5.522,-10.349,0.422,7.836,1.496,2.700,-32.250,-52.650
11.55,1,-4.938,4.430,-10.287,0.428,8.777,1.705,2.400,-33.750,-50.100
11.65,1,-2.708,3.549,-8.153,0.467,8.205,1.717,1.650,-33.750,-48.600
11.75,1,-1.925,2.947,-6.397,1.080,8.199,0.826,1.950,-33.450,-47.100
11.87,1,-1.331,3.259,-3.040,1.084,8.400,0.586,1.500,-34.050,-46.950
11.97,1,-1.916,2.581,-2.269,0.629,7.582,0.295,1.500,-34.350,-48.000
12.07,1,-2.320,1.445,-4.896,0.887,7.912,0.197,0.450,-33.450,-48.600
12.17,1,-2.038,1.437,-5.385,0.967,7.863,0.605,-1.200,-33.000,-46.350
12.29,1,-1.756,1.712,-4.884,1.275,8.021,0.859,0.450,-34.500,-47.850
12.39,1,-1.743,1.038,-5.619,1.025,8.123,0.697,0.900,-33.450,-47.550
12.49,1,-1.853,1.252,-6.712,1.139,7.869,0.682,-0.750,-32.400,-46.200
12.59,1,-1.994,1.336,-7.320,1.250,7.826,0.404,0.150,-33.450,-46.800
12.70,1,-2.044,0.549,-8.968,1.289,7.773,0.359,-3.000,-31.950,-47.700
12.80,1,-1.606,0.092,-10.026,1.197,7.813,0.559,-3.300,-31.950,-47.700
12.90,1,-0.900,0.250,-10.673,1.365,8.119,0.816,-2.550,-33.150,-46.650
13.02,1,-0.610,0.250,-10.515,1.383,7.865,0.832,-2.550,-33.150,-46.200
13.12,1,-0.909,0.276,-9.848,1.514,7.713,0.826,-4.050,-32.850,-46.950
13.23,1,-1.580,0.270,-9.631,1.408,7.824,0.553,-3.300,-31.650,-48.000
13.34,1,-2.060,-0.001,-9.203,1.352,7.813,0.506,-2.250,-32.850,-45.900
13.43,1,-2.374,-0.313,-9.129,1.303,7.777,0.402,-2.550,-32.400,-47.700
13.53,1,-2.128,-0.363,-9.092,1.453,7.752,0.467,-3.300,-31.950,-47.700
13.63,1,-1.544,-0.079,-8.201,1.414,7.840,0.834,-3.150,-31.050,-47.100
13.73,1,-1.228,0.417,-7.417,1.543,7.875,0.850,-3.150,-31.500,-46.350
13.85,1,-1.226,0.473,-7.147,1.465,7.914,0.729,-2.700,-34.500,-46.800
13.95,1,-1.399,0.305,-7.039,1.307,7.771,0.500,-3.750,-33.600,-46.200
14.05,1,-1.391,0.353,-6.726,1.312,7.852,0.512,-4.500,-31.650,-46.950
14.17,1,-1.193,0.533,-6.205,1.281,7.850,0.619,-2.400,-33.450,-47.100
14.27,1,-1.004,0.598,-5.678,1.336,7.848,0.674,-2.400,-31.500,-47.550
14.37,1,-0.943,0.569,-5.104,1.234,7.896,0.641,-3.300,-34.050,-46.200
14.47,1,-0.938,0.534,-4.820,1.383,7.814,0.529,-3.150,-30.600,-48.300
14.59,1,-0.845,0.514,-4.495,1.336,7.766,0.563,-3.000,-31.650,-47.700
14.69,1,-0.632,0.577,-3.934,1.312,7.838,0.549,-2.700,-31.800,-47.550
14.79,1,-0.389,0.661,-3.378,1.363,7.814,0.533,-2.700,-32.550,-47.550
14.89,1,-0.208,0.807,-2.946,1.340,7.797,0.469,-1.650,-32.550,-46.050
14.99,1,-0.104,0.758,-2.742,1.338,7.938,0.504,-3.150,-33.000,-47.100
15.10,1,-0.109,0.735,-2.533,1.379,7.912,0.537,-1.800,-33.600,-48.000
15.20,1,-0.215,0.792,-2.252,1.449,7.941,0.467,-4.050,-32.850,-46.950
15.32,1,-0.281,0.798,-2.115,1.482,7.803,0.492,-2.550,-31.950,-47.700
15.42,1,-0.269,0.722,-1.980,1.488,7.828,0.494,-2.400,-33.750,-47.550
15.52,1,-0.215,0.471,-1.905,1.375,7.781,0.596,-3.750,-31.650,-48.750
15.63,1,-0.197,0.422,-1.848,1.508,7.797,0.500,-2.550,-31.650,-47.400
15.73,1,-0.193,0.294,-1.749,1.500,7.893,0.492,-3.300,-32.400,-46.950
15.84,1,-0.204,0.112,-1.778,1.570,7.867,0.516,-3.000,-32.400,-46.200
15.94,1,-0.259,-0.052,-1.643,1.482,7.877,0.426,-3.000,-30.900,-46.950
16.04,1,-0.215,-0.063,-1.449,1.539,7.801,0.578,-3.750,-32.400,-47.700
16.14,1,-0.210,0.064,-1.123,1.578,7.834,0.682,-2.550,-32.850,-47.400
