time,IMU#,roll,pitch,yaw,accelx,accely,accelz,compassx,compassy,compassz
0.12,1,0.021,-1.048,-2.802,2.026,7.621,1.352,-25.572,-44.603,-21.133
0.21,1,0.178,-0.969,-2.731,1.985,7.613,1.377,-24.372,-43.403,-21.733
0.32,1,0.223,-0.864,-2.509,1.747,7.699,1.178,-23.322,-43.853,-21.433
0.42,1,0.181,-0.757,-2.309,1.942,7.641,1.275,-24.222,-44.453,-22.333
0.52,1,0.269,-0.613,-2.262,1.937,7.686,1.369,-23.020,-42.505,-21.279
0.63,1,0.381,-0.459,-2.154,1.946,7.590,1.297,-23.620,-42.655,-20.380
0.74,1,0.435,-0.448,-2.074,1.870,7.658,1.291,-23.470,-44.455,-23.079
0.83,1,0.489,-0.569,-2.159,1.905,7.635,1.242,-23.320,-42.655,-21.430
0.95,1,0.603,-0.678,-2.344,1.808,7.652,1.248,-24.220,-43.705,-23.529
1.05,1,0.793,-0.692,-2.594,1.921,7.633,1.375,-23.320,-43.855,-22.479
1.16,1,0.925,-0.703,-2.802,1.909,7.754,1.428,-23.770,-43.705,-21.579
1.27,1,0.898,-0.725,-3.015,1.909,7.646,1.311,-25.120,-43.855,-22.180
1.36,1,0.719,-0.736,-3.051,1.964,7.674,1.223,-23.620,-43.405,-19.930
1.47,1,0.638,-0.756,-3.021,1.819,7.699,1.328,-24.970,-44.005,-21.579
1.57,1,0.665,-0.694,-3.095,1.948,7.711,1.291,-24.070,-43.405,-21.430
1.67,1,0.789,-0.643,-3.067,1.829,7.641,1.283,-25.120,-43.405,-22.479
1.78,1,0.831,-0.559,-3.220,1.979,7.703,1.285,-23.620,-45.355,-22.180
1.89,1,0.716,-0.519,-3.234,1.919,7.633,1.277,-24.220,-44.905,-22.029
1.98,1,0.683,-0.480,-3.123,1.864,7.607,1.295,-24.670,-42.055,-21.579
2.10,1,0.797,-0.456,-3.100,1.812,7.689,1.311,-23.620,-42.655,-23.680
2.20,1,0.855,-0.453,-3.106,1.843,7.701,1.299,-24.370,-43.405,-22.930
2.31,1,0.875,-0.492,-3.239,1.880,7.691,1.283,-24.070,-43.855,-20.680
2.41,1,0.900,-0.523,-3.425,1.874,7.650,1.305,-24.220,-44.455,-22.329
2.51,1,0.914,-0.532,-3.565,1.944,7.717,1.326,-23.770,-43.705,-22.029
2.61,1,0.931,-0.372,-3.419,1.733,7.725,1.396,-23.470,-44.905,-22.329
2.72,1,0.622,0.069,-3.762,1.642,7.838,1.799,-24.070,-43.855,-22.180
2.82,1,-0.121,0.876,-5.443,2.007,7.646,1.783,-23.620,-44.305,-22.479
2.93,1,-0.969,1.937,-5.674,2.024,7.619,1.510,-24.670,-42.055,-22.779
3.04,1,-1.774,2.732,-5.740,1.987,7.594,1.586,-23.020,-40.555,-23.829
3.13,1,-2.412,3.235,-5.764,1.864,7.543,1.676,-23.773,-42.049,-24.882
3.24,1,-2.665,3.621,-5.496,1.884,7.445,1.869,-24.373,-39.499,-25.932
3.35,1,-2.752,3.811,-5.168,1.747,7.432,1.967,-22.873,-40.699,-27.282
3.46,1,-2.849,3.935,-4.978,1.405,7.664,2.309,-22.873,-41.899,-26.682
3.57,1,-3.158,4.429,-5.581,1.560,7.658,2.697,-24.373,-41.899,-26.982
3.66,1,-3.762,5.964,-6.819,1.782,7.699,3.186,-21.973,-40.849,-26.082
3.77,1,-5.435,8.005,-9.141,1.737,7.582,3.525,-24.823,-41.149,-28.782
3.87,1,-7.980,10.650,-11.864,1.796,7.660,3.391,-23.328,-39.490,-31.483
3.97,1,-11.501,12.861,-14.913,1.651,7.279,3.387,-23.476,-36.646,-31.932
4.08,1,-14.718,15.209,-17.494,1.786,6.934,4.084,-23.476,-34.696,-33.432
4.18,1,-17.746,18.149,-19.264,1.552,6.820,4.732,-23.475,-32.298,-37.483
4.28,1,-21.477,21.016,-21.338,1.298,6.512,5.129,-21.525,-29.148,-38.983
4.38,1,-25.288,24.455,-23.934,1.665,6.072,5.674,-21.523,-26.743,-40.928
4.49,1,-29.803,27.824,-27.049,1.642,5.611,6.266,-20.623,-22.242,-44.077
4.60,1,-35.156,30.985,-30.398,1.261,4.855,6.760,-21.074,-20.295,-46.631
4.70,1,-41.592,33.502,-34.988,1.177,4.006,6.998,-18.524,-13.696,-49.784
4.80,1,-48.846,35.011,-39.729,1.821,3.311,7.871,-19.723,-7.845,-48.580
4.91,1,-56.353,37.942,-43.709,0.511,2.494,7.873,-18.229,-4.693,-51.588
5.02,1,-64.869,38.609,-50.109,0.829,1.586,7.119,-18.224,1.154,-50.530
5.14,1,-72.452,38.870,-55.686,0.938,0.615,7.250,-18.521,7.902,-49.328
5.24,1,-78.994,39.108,-60.265,0.845,-0.160,7.557,-18.210,11.792,-49.020
5.34,1,-84.921,38.933,-64.242,0.528,-0.816,7.398,-17.306,16.289,-48.419
5.45,1,-90.043,38.150,-67.733,0.427,-1.605,7.393,-17.004,19.737,-47.669
5.55,1,-94.101,36.985,-70.703,0.755,-1.795,7.662,-17.904,23.187,-47.519
5.64,1,-98.059,36.056,-73.848,0.659,-2.322,7.979,-18.040,25.567,-45.872
5.76,1,-102.383,34.308,-76.832,0.853,-3.088,7.309,-17.898,26.180,-43.766
5.86,1,-106.537,32.815,-79.845,0.673,-3.459,6.984,-18.498,30.531,-43.016
5.95,1,-110.114,31.096,-82.019,0.577,-3.936,6.488,-18.498,32.481,-38.666
6.07,1,-112.730,29.308,-83.713,0.905,-4.219,5.934,-18.338,33.066,-38.074
6.17,1,-114.423,28.652,-85.022,0.776,-4.424,6.072,-18.788,35.466,-36.274
6.27,1,-115.405,28.700,-86.064,0.653,-4.445,6.494,-19.088,35.466,-34.774
6.38,1,-116.183,28.548,-86.550,0.532,-4.727,6.441,-18.188,37.116,-35.674
6.47,1,-116.739,28.331,-86.824,0.614,-4.682,6.152,-17.888,36.816,-34.624
6.59,1,-116.937,28.073,-86.624,0.634,-4.770,6.697,-17.859,37.961,-35.707
6.69,1,-117.257,27.335,-86.229,0.724,-4.799,6.621,-18.459,36.311,-35.707
6.80,1,-117.850,26.491,-85.730,0.731,-4.848,6.271,-17.859,37.511,-34.657
6.89,1,-118.176,25.410,-84.606,0.700,-4.799,6.148,-18.909,38.261,-33.907
7.01,1,-118.217,23.856,-82.760,0.614,-4.992,6.262,-19.214,39.473,-33.898
7.11,1,-117.985,22.375,-81.770,1.251,-5.049,5.979,-19.964,38.273,-32.698
7.21,1,-117.873,22.407,-81.657,1.099,-4.975,6.180,-19.814,38.123,-30.748
7.32,1,-117.950,22.676,-81.524,0.956,-5.049,6.430,-20.714,38.273,-31.648
7.42,1,-118.024,21.925,-80.976,1.489,-5.020,6.205,-19.664,39.473,-32.698
7.54,1,-118.275,21.493,-80.352,0.952,-5.215,5.992,-20.564,38.873,-31.498
7.63,1,-118.269,21.512,-80.169,0.985,-5.023,5.840,-19.664,40.673,-31.648
7.74,1,-117.994,21.588,-79.956,1.024,-5.160,6.271,-21.164,40.673,-30.898
7.84,1,-117.588,21.366,-79.913,1.438,-5.150,6.203,-19.814,38.873,-32.248
7.96,1,-117.507,21.293,-79.841,1.542,-5.070,6.301,-21.164,39.923,-30.898
8.06,1,-117.817,21.343,-79.644,1.188,-5.047,6.068,-19.814,39.323,-32.248
8.15,1,-118.151,21.455,-79.628,0.966,-5.051,6.078,-19.214,39.923,-32.398
8.27,1,-118.286,21.419,-79.509,1.015,-5.166,6.141,-21.314,40.073,-30.748
8.37,1,-118.295,21.317,-79.599,1.175,-5.119,6.156,-19.664,40.673,-31.198
8.47,1,-118.402,21.241,-79.585,1.153,-5.188,6.357,-19.214,40.673,-31.948
8.57,1,-118.762,21.020,-79.897,1.169,-5.184,6.209,-21.014,40.823,-29.548
8.68,1,-119.203,20.393,-79.721,1.161,-5.285,5.432,-19.214,41.123,-29.848
8.78,1,-119.188,20.481,-79.331,0.862,-5.273,5.531,-19.814,39.623,-30.748
8.90,1,-118.582,20.916,-79.038,0.911,-5.195,6.016,-18.464,40.673,-30.448
8.99,1,-117.759,21.031,-78.625,0.880,-5.176,5.914,-19.514,39.323,-29.998
9.10,1,-116.577,21.234,-78.118,0.950,-5.090,6.133,-20.264,38.873,-32.248
9.20,1,-115.086,21.393,-77.551,1.081,-4.908,5.852,-21.014,38.123,-33.598
9.30,1,-112.937,21.666,-76.703,1.128,-4.658,5.719,-21.314,36.623,-33.298
9.41,1,-109.528,21.789,-75.161,0.411,-4.061,5.246,-22.210,36.767,-36.752
9.52,1,-104.121,22.142,-73.669,1.413,-3.203,5.859,-24.185,31.254,-37.182
9.63,1,-97.818,23.970,-71.615,1.913,-2.436,7.428,-24.929,27.347,-40.934
9.73,1,-91.832,25.438,-69.075,2.300,-1.881,8.064,-26.145,21.965,-44.229
9.83,1,-86.631,25.454,-66.165,2.487,-1.451,7.719,-25.101,19.421,-45.129
9.94,1,-81.990,24.949,-62.914,2.188,-0.762,6.988,-25.401,14.171,-45.279
10.03,1,-76.826,24.211,-58.572,1.890,0.002,6.445,-28.559,12.378,-45.129
10.15,1,-70.732,23.332,-53.230,2.296,0.963,6.805,-28.858,7.578,-45.879
10.25,1,-64.344,22.645,-46.441,2.183,1.939,7.477,-26.613,2.631,-44.830
10.36,1,-57.274,22.944,-40.327,1.606,2.844,8.236,-26.319,-2.916,-48.132
10.46,1,-50.987,21.232,-38.036,2.544,3.516,7.904,-26.175,-8.164,-46.035
10.56,1,-45.666,19.295,-36.803,2.546,4.105,6.791,-28.137,-13.412,-44.092
10.68,1,-41.209,16.922,-34.960,2.468,4.510,6.541,-29.483,-16.262,-42.289
10.78,1,-36.940,13.632,-33.515,2.452,5.289,5.486,-29.183,-19.862,-40.189
10.87,1,-31.977,10.016,-32.429,2.624,5.777,5.307,-30.835,-24.661,-37.340
10.98,1,-26.351,7.580,-30.504,2.733,6.475,4.742,-31.745,-27.966,-33.890
11.09,1,-21.098,5.455,-28.639,2.837,7.145,4.938,-29.339,-32.461,-31.490
11.20,1,-16.623,4.247,-26.051,2.110,7.252,4.250,-29.194,-34.719,-28.333
11.30,1,-13.284,2.910,-25.194,2.255,7.066,3.793,-29.643,-37.265,-26.234
11.40,1,-10.415,1.950,-24.803,2.196,7.270,3.004,-27.993,-38.619,-24.130
11.51,1,-8.255,0.385,-25.549,2.534,7.225,2.541,-28.893,-40.719,-21.430
11.61,1,-6.058,-0.339,-21.853,1.905,7.664,2.152,-27.394,-41.164,-20.683
11.73,1,-3.827,-1.252,-18.283,2.091,7.775,1.852,-26.494,-43.714,-20.083
11.83,1,-1.909,-1.999,-12.558,1.669,7.654,2.375,-26.194,-43.714,-19.033
11.93,1,-1.533,-2.265,-7.396,0.573,8.045,2.838,-24.840,-43.868,-20.679
12.04,1,-1.748,-1.454,-5.105,1.690,7.525,0.875,-23.640,-43.868,-21.729
12.14,1,-1.873,-1.088,-3.130,1.681,7.820,0.895,-24.090,-44.618,-21.429
12.24,1,-1.775,-1.723,-2.528,1.575,7.805,1.633,-23.790,-43.718,-20.529
12.34,1,-1.634,-1.964,-2.038,1.663,7.680,1.703,-24.390,-43.868,-21.729
12.44,1,-1.722,-1.929,-0.969,1.800,7.846,1.078,-23.490,-44.018,-22.329
12.54,1,-2.091,-2.257,-0.093,1.456,7.529,1.277,-24.390,-43.418,-21.429
12.67,1,-2.024,-2.398,-0.592,1.917,7.682,1.443,-24.390,-43.118,-20.379
12.76,1,-1.920,-2.229,-0.561,1.776,7.721,1.416,-25.440,-42.818,-20.529
12.86,1,-1.874,-2.028,-0.390,1.624,7.723,1.303,-25.140,-44.318,-21.729
12.97,1,-1.784,-1.998,-0.559,1.810,7.625,1.346,-24.240,-42.818,-23.079
13.06,1,-1.734,-1.947,-0.637,1.737,7.711,1.410,-24.690,-44.918,-22.029
13.17,1,-1.717,-1.869,-0.546,1.698,7.723,1.328,-24.240,-42.518,-22.779
13.28,1,-1.620,-1.759,-0.520,1.685,7.684,1.383,-23.490,-44.468,-21.279
13.39,1,-1.494,-1.656,-0.411,1.688,7.631,1.371,-22.740,-43.718,-23.529
13.48,1,-1.358,-1.567,-0.359,1.741,7.674,1.404,-23.790,-43.718,-21.579
13.59,1,-1.256,-1.468,-0.296,1.747,7.682,1.424,-22.894,-43.112,-21.132
13.70,1,-1.165,-1.345,-0.218,1.673,7.668,1.375,-24.244,-42.812,-22.032
13.79,1,-1.137,-1.296,-0.260,1.724,7.742,1.398,-24.244,-42.812,-21.282
13.91,1,-1.137,-1.269,-0.366,1.763,7.689,1.434,-23.344,-42.662,-20.682
14.01,1,-1.133,-1.172,-0.348,1.720,7.721,1.363,-23.494,-43.712,-22.032
14.11,1,-1.086,-1.159,-0.545,1.747,7.705,1.412,-22.594,-43.112,-22.482
14.23,1,-1.013,-1.072,-0.508,1.737,7.713,1.459,-24.844,-46.562,-21.132
14.33,1,-0.933,-0.914,-0.224,1.747,7.684,1.385,-24.394,-44.312,-22.182
14.43,1,-0.923,-0.825,-0.059,1.681,7.598,1.383,-23.044,-44.012,-22.032
14.53,1,-0.973,-0.817,-0.026,1.657,7.695,1.398,-22.744,-44.462,-23.082
14.64,1,-1.000,-0.909,-0.300,1.575,7.723,1.385,-22.294,-42.812,-22.032
14.75,1,-0.835,-0.961,-0.589,1.872,7.771,1.455,-24.394,-44.612,-21.732
14.84,1,-0.733,-0.875,-0.377,1.761,7.645,1.439,-23.644,-44.612,-23.232
14.95,1,-0.648,-0.710,-0.026,1.690,7.742,1.385,-23.794,-44.012,-21.582
15.05,1,-0.558,-0.559,0.207,1.632,7.686,1.402,-23.794,-43.712,-22.782
15.15,1,-0.422,-0.424,0.309,1.712,7.686,1.340,-24.244,-43.262,-21.282
15.26,1,-0.298,-0.359,0.334,1.716,7.721,1.447,-22.894,-43.412,-22.182
15.37,1,-0.244,-0.262,0.486,1.651,7.730,1.449,-23.644,-44.312,-22.482
