time,IMU#,roll,pitch,yaw,accelx,accely,accelz,compassx,compassy,compassz
0.10,1,0.132,0.087,-1.345,2.126,7.627,1.002,-27.106,-43.376,-17.396
0.22,1,0.164,0.055,-1.490,2.171,7.693,1.064,-26.206,-43.226,-17.996
0.31,1,0.143,0.043,-1.542,2.190,7.619,1.066,-27.256,-44.876,-17.996
0.42,1,0.138,0.055,-1.579,2.167,7.643,1.053,-27.406,-42.626,-18.896
0.52,1,0.096,0.068,-1.488,2.095,7.623,1.098,-27.256,-42.776,-17.996
0.63,1,0.083,0.086,-1.533,2.226,7.656,1.113,-28.756,-43.226,-17.996
0.73,1,0.092,0.116,-1.409,2.095,7.627,1.049,-28.606,-43.826,-18.146
0.84,1,0.151,0.186,-1.293,2.249,7.635,1.135,-27.106,-41.426,-18.446
0.93,1,0.091,0.250,-1.045,2.024,7.652,1.033,-26.356,-42.326,-16.946
1.04,1,0.123,0.229,-1.282,2.190,7.621,1.123,-28.006,-44.426,-19.046
1.15,1,0.056,0.177,-1.402,2.220,7.615,1.049,-27.106,-43.826,-19.646
1.25,1,-0.011,0.115,-1.451,2.157,7.684,1.115,-28.156,-43.076,-16.946
1.37,1,0.027,0.144,-1.354,2.337,7.604,0.973,-28.006,-42.476,-19.046
1.47,1,-0.021,0.072,-0.853,2.069,7.654,1.100,-26.356,-42.626,-18.146
1.56,1,0.002,0.081,-0.601,2.048,7.723,1.135,-27.706,-43.676,-18.296
1.67,1,0.129,0.208,-0.736,2.243,7.598,1.080,-27.706,-43.226,-19.346
1.78,1,0.150,0.243,-0.899,2.202,7.641,1.096,-26.656,-43.076,-19.196
1.88,1,0.061,0.267,-0.854,2.153,7.629,1.082,-26.356,-42.626,-18.446
1.99,1,0.010,0.310,-0.652,2.155,7.658,1.143,-26.356,-43.376,-17.696
2.09,1,-0.030,0.410,-0.615,2.173,7.611,1.109,-27.256,-42.476,-19.046
2.18,1,-0.124,0.550,-0.511,2.147,7.734,1.217,-27.256,-41.726,-20.096
2.29,1,-0.341,0.969,-0.492,2.378,7.594,1.359,-26.956,-42.026,-19.796
2.41,1,-1.062,1.524,-0.426,2.194,7.658,1.549,-28.006,-42.776,-22.796
2.51,1,-1.976,2.405,-0.463,2.079,7.729,1.674,-27.857,-41.115,-20.404
2.62,1,-2.974,3.623,-0.447,2.181,7.680,2.025,-27.107,-41.415,-20.704
2.72,1,-3.911,5.479,-0.714,2.157,7.623,2.227,-27.257,-40.815,-23.104
2.83,1,-5.237,7.541,-1.734,2.134,7.479,2.357,-27.407,-38.715,-24.754
2.93,1,-6.806,9.644,-3.446,2.173,7.584,2.492,-27.257,-38.870,-27.600
3.04,1,-8.608,11.592,-5.268,2.144,7.088,3.088,-27.107,-37.970,-29.250
3.14,1,-10.073,14.233,-5.699,2.132,7.146,3.750,-27.106,-36.765,-30.300
3.24,1,-12.094,17.026,-6.555,1.927,6.994,3.852,-25.456,-35.415,-31.950
3.35,1,-14.299,19.954,-7.909,1.993,6.711,4.391,-25.455,-32.729,-34.947
3.45,1,-16.593,22.970,-9.122,1.579,6.463,4.799,-24.405,-29.730,-36.598
3.55,1,-18.966,26.029,-11.250,1.308,6.227,5.254,-24.255,-29.130,-40.198
3.66,1,-21.840,28.593,-15.012,1.905,6.004,5.523,-24.098,-26.572,-39.587
3.76,1,-24.761,32.024,-17.915,1.673,5.432,5.840,-23.348,-23.872,-42.587
3.86,1,-28.381,35.158,-21.093,1.526,5.045,6.250,-22.300,-21.773,-44.540
3.97,1,-32.762,37.717,-24.637,1.544,4.504,6.660,-22.900,-18.323,-45.890
4.08,1,-37.729,39.876,-27.986,1.442,4.020,6.932,-21.852,-14.274,-47.693
4.19,1,-43.134,41.869,-31.764,1.351,3.588,7.025,-23.055,-9.324,-47.847
4.29,1,-48.168,44.068,-35.781,1.501,2.834,7.377,-22.756,-7.373,-48.599
4.39,1,-52.661,47.222,-39.206,0.907,2.336,7.516,-20.806,-2.723,-49.349
4.50,1,-57.803,49.572,-44.372,0.790,1.836,8.047,-18.262,0.430,-51.603
4.59,1,-64.033,50.731,-50.382,0.716,1.234,8.168,-18.561,2.830,-50.102
4.71,1,-71.197,50.958,-56.630,0.653,0.674,8.072,-18.411,7.630,-50.702
4.81,1,-78.455,50.519,-62.558,0.704,0.023,7.842,-18.860,10.779,-49.952
4.91,1,-85.223,49.996,-67.797,0.622,-0.533,7.863,-18.408,13.627,-49.651
5.01,1,-91.212,48.482,-72.898,0.638,-1.166,6.795,-17.958,18.427,-48.601
5.13,1,-95.670,47.742,-76.430,0.573,-1.691,7.232,-19.152,21.720,-46.201
5.23,1,-98.850,46.405,-79.293,0.896,-2.189,7.686,-19.902,21.720,-45.451
5.34,1,-101.935,45.065,-82.124,0.985,-2.475,7.596,-21.105,24.575,-45.149
5.44,1,-104.822,43.498,-84.044,0.983,-2.811,7.078,-19.603,27.272,-44.100
5.55,1,-107.088,42.591,-85.341,0.856,-3.010,7.053,-19.753,27.422,-41.700
5.64,1,-108.640,41.938,-86.156,0.849,-3.197,7.475,-19.003,28.622,-42.300
5.76,1,-110.402,41.413,-87.577,0.698,-3.332,7.373,-19.153,28.772,-41.400
5.86,1,-112.244,40.202,-88.714,0.917,-3.496,6.664,-19.153,31.172,-40.650
5.97,1,-113.586,39.513,-89.416,0.806,-3.723,6.498,-18.249,32.516,-39.452
6.07,1,-114.282,39.422,-89.813,0.560,-3.934,6.910,-18.999,32.516,-39.752
6.17,1,-114.635,38.938,-90.208,0.915,-3.992,6.893,-18.999,34.166,-40.952
6.27,1,-115.035,38.771,-90.432,0.819,-3.996,6.773,-20.049,31.766,-39.002
6.37,1,-115.040,38.153,-89.495,0.952,-3.996,6.926,-19.899,33.566,-39.902
6.50,1,-115.162,38.499,-89.203,0.474,-3.861,7.283,-18.549,32.516,-37.502
6.60,1,-115.039,37.759,-89.005,0.851,-3.939,6.803,-19.599,31.166,-38.102
6.70,1,-115.065,37.514,-88.946,0.796,-4.250,6.832,-18.849,32.367,-38.102
6.82,1,-115.112,37.744,-89.218,0.657,-4.031,6.846,-20.049,34.466,-39.452
6.91,1,-114.789,37.345,-88.910,0.815,-3.959,6.906,-18.999,32.516,-37.952
7.01,1,-114.618,37.147,-88.970,0.972,-4.010,7.061,-19.149,33.867,-37.352
7.11,1,-114.699,36.762,-89.057,1.106,-3.965,6.852,-21.249,34.466,-37.952
7.21,1,-114.878,36.636,-89.252,0.997,-3.979,6.975,-19.299,33.716,-39.452
7.32,1,-115.104,36.415,-89.380,0.962,-4.164,7.006,-18.999,32.216,-36.752
7.42,1,-115.525,36.155,-89.269,0.907,-4.164,6.688,-18.566,34.196,-37.935
7.52,1,-115.785,36.037,-88.505,0.665,-4.164,6.846,-19.316,34.946,-38.235
7.63,1,-115.783,35.838,-88.287,0.872,-4.229,6.828,-19.166,33.596,-37.335
7.73,1,-115.568,35.575,-88.034,1.042,-4.270,6.609,-18.266,34.496,-37.485
7.85,1,-115.326,35.779,-87.717,0.935,-4.170,6.688,-17.966,32.996,-37.485
7.95,1,-115.021,36.346,-87.468,0.638,-4.082,7.043,-19.766,32.996,-37.485
8.04,1,-114.738,36.621,-87.310,0.833,-4.002,6.975,-18.116,32.696,-38.835
8.15,1,-114.534,36.860,-87.245,0.522,-4.041,6.875,-18.566,32.546,-39.435
8.25,1,-113.960,36.767,-87.224,1.052,-4.029,6.803,-19.316,33.746,-40.485
8.37,1,-113.316,37.054,-86.847,0.952,-3.801,6.840,-17.816,32.696,-39.585
8.47,1,-112.419,37.413,-86.115,0.792,-3.818,6.973,-18.566,30.596,-40.185
8.58,1,-111.328,37.774,-85.327,0.765,-3.746,7.152,-19.752,31.022,-39.745
8.68,1,-110.238,38.103,-84.627,0.997,-3.580,7.010,-19.152,30.722,-42.895
8.79,1,-109.080,38.618,-83.662,0.987,-3.451,6.990,-18.402,29.672,-41.395
8.89,1,-107.837,39.506,-82.464,0.899,-3.289,7.227,-20.352,29.672,-41.845
8.99,1,-106.432,40.684,-81.717,0.667,-2.918,7.545,-20.652,27.274,-42.894
9.10,1,-104.947,41.255,-80.521,0.804,-2.934,7.604,-20.052,26.674,-43.494
9.20,1,-103.496,41.592,-78.873,0.673,-2.746,7.287,-20.052,27.124,-44.244
9.31,1,-101.588,42.070,-76.835,0.532,-2.469,7.094,-16.902,24.274,-44.994
9.41,1,-98.706,42.479,-74.311,0.372,-2.096,7.246,-18.402,23.374,-44.394
9.51,1,-94.741,42.835,-71.262,0.478,-1.633,7.389,-19.603,22.625,-46.194
9.62,1,-90.159,43.608,-68.022,0.532,-1.176,7.885,-20.653,18.275,-48.444
9.72,1,-85.334,43.649,-65.067,1.315,-0.770,7.701,-19.736,15.709,-47.542
9.83,1,-80.365,43.487,-61.370,1.253,-0.309,7.498,-20.625,12.698,-48.138
9.93,1,-74.708,43.130,-56.870,0.976,0.490,6.914,-21.075,7.598,-47.688
10.04,1,-67.719,43.023,-51.331,0.921,1.211,8.020,-21.825,4.149,-50.388
10.14,1,-61.037,42.984,-46.417,1.188,1.766,8.672,-20.326,-0.200,-49.938
10.24,1,-56.098,42.207,-42.898,1.271,2.131,8.289,-20.326,-2.900,-49.188
10.35,1,-52.243,42.074,-39.669,1.067,2.467,8.166,-20.631,-6.348,-50.393
10.46,1,-49.447,40.975,-37.648,1.222,2.768,7.158,-20.480,-9.348,-49.793
10.56,1,-46.456,39.286,-35.069,1.526,2.980,6.670,-21.080,-9.948,-48.893
10.68,1,-42.424,37.701,-30.857,1.435,3.701,6.578,-21.080,-14.298,-48.143
10.77,1,-37.891,35.053,-26.006,1.144,4.309,6.215,-22.730,-16.698,-48.292
10.87,1,-32.251,32.258,-19.909,0.925,4.941,6.264,-20.480,-19.398,-44.542
10.98,1,-27.420,28.657,-14.922,0.507,5.902,6.564,-21.830,-25.099,-43.644
11.08,1,-24.075,25.184,-12.907,1.271,6.184,6.180,-23.330,-27.799,-40.644
11.19,1,-20.805,22.707,-11.537,2.095,6.580,5.131,-21.830,-28.999,-38.843
11.29,1,-17.852,20.363,-8.936,1.726,6.621,4.629,-22.580,-32.448,-37.043
11.39,1,-15.962,17.117,-7.428,1.481,6.684,3.971,-24.830,-34.398,-34.793
11.50,1,-13.264,13.871,-5.022,1.614,7.652,2.381,-23.628,-37.555,-32.542
11.60,1,-9.741,10.356,-1.802,1.146,7.006,4.025,-23.777,-37.857,-29.092
11.71,1,-7.337,7.650,-1.275,1.540,7.881,3.855,-22.726,-40.857,-27.141
11.81,1,-5.686,5.793,-2.558,1.833,7.934,2.445,-24.376,-42.357,-25.191
11.91,1,-4.427,4.159,-2.282,1.792,7.582,1.826,-25.428,-43.704,-22.344
12.02,1,-3.196,2.726,-0.968,2.235,7.668,1.578,-24.978,-43.255,-20.544
12.13,1,-2.449,1.495,4.614,1.884,7.844,1.898,-23.778,-44.005,-19.044
12.23,1,-2.850,1.705,9.341,1.163,7.848,2.500,-22.878,-45.805,-21.744
12.34,1,-3.426,2.193,10.906,1.784,7.764,0.809,-24.078,-44.604,-21.744
12.44,1,-3.566,2.108,11.598,1.909,7.553,0.813,-25.128,-45.354,-21.444
12.55,1,-3.243,1.668,12.379,1.606,7.592,1.629,-24.678,-44.005,-21.594
12.65,1,-3.123,1.598,11.982,1.911,7.695,1.705,-23.328,-43.404,-21.444
12.75,1,-3.341,1.739,12.988,1.743,7.701,1.148,-23.328,-45.055,-22.194
12.86,1,-3.320,1.739,13.443,1.708,7.688,1.330,-22.728,-44.904,-22.344
12.96,1,-3.320,1.552,12.435,1.487,7.809,1.346,-24.082,-44.299,-22.197
13.07,1,-3.277,1.342,11.237,1.909,7.615,1.486,-23.614,-44.316,-21.127
13.17,1,-3.232,1.561,12.035,1.800,7.676,1.357,-23.464,-43.716,-22.027
13.27,1,-3.120,1.845,12.799,1.620,7.697,1.330,-23.464,-44.916,-23.527
13.39,1,-2.944,1.985,12.786,1.778,7.789,1.361,-23.014,-42.516,-21.577
13.49,1,-2.759,2.108,12.803,1.759,7.701,1.400,-21.964,-44.466,-22.777
13.59,1,-2.646,2.168,12.919,1.837,7.645,1.328,-22.264,-42.816,-21.577
13.70,1,-2.611,2.185,12.884,1.774,7.723,1.412,-23.464,-44.016,-22.327
13.80,1,-2.556,2.273,12.974,1.688,7.738,1.432,-23.464,-43.266,-22.327
13.90,1,-2.395,2.375,13.005,1.825,7.602,1.408,-23.764,-42.816,-21.577
14.01,1,-2.348,2.351,12.978,1.804,7.705,1.426,-22.714,-43.716,-21.577
14.12,1,-2.273,2.391,12.990,1.714,7.660,1.471,-22.864,-45.066,-22.927
14.22,1,-2.197,2.397,12.969,1.759,7.703,1.398,-23.614,-44.316,-23.227
14.32,1,-2.193,2.364,12.885,1.812,7.709,1.459,-23.764,-42.816,-22.327
14.43,1,-2.129,2.403,12.949,1.798,7.771,1.373,-22.864,-44.316,-22.477
14.53,1,-1.997,2.492,13.167,1.749,7.678,1.383,-24.064,-44.616,-22.177
14.63,1,-1.876,2.589,13.311,1.765,7.691,1.361,-22.714,-44.916,-22.327
14.74,1,-1.766,2.649,13.293,1.653,7.699,1.336,-22.564,-43.416,-23.227
14.84,1,-1.663,2.644,13.063,1.743,7.699,1.375,-22.714,-42.816,-21.577
14.96,1,-1.578,2.650,12.884,1.739,7.684,1.443,-22.114,-45.366,-23.677
15.06,1,-1.429,2.664,12.842,1.728,7.646,1.398,-22.864,-45.816,-21.727
