time,IMU#,roll,pitch,yaw,accelx,accely,accelz,compassx,compassy,compassz
0.12,0,0.151,0.004,-0.182,-0.336,-8.105,-0.213,16.087,50.352,-10.875
0.23,0,0.142,0.017,-0.121,-0.346,-8.162,-0.162,14.587,49.602,-10.125
0.32,0,0.121,0.035,-0.004,-0.332,-8.102,-0.240,15.337,49.902,-9.375
0.42,0,0.034,0.051,0.103,-0.332,-8.152,-0.217,14.887,50.352,-10.125
0.53,0,-0.048,0.061,0.281,-0.213,-8.150,-0.191,15.337,50.352,-10.575
0.64,0,-0.104,0.045,0.338,-0.213,-8.102,-0.199,15.037,50.952,-10.275
0.75,0,-0.116,0.024,0.293,-0.322,-8.158,-0.158,15.037,49.752,-10.725
0.85,0,-0.060,0.053,0.357,-0.252,-8.117,-0.244,15.637,49.602,-9.375
0.94,0,0.003,0.108,0.318,-0.355,-8.166,-0.184,15.337,49.902,-10.575
1.06,0,0.046,0.126,0.289,-0.324,-8.137,-0.145,14.587,48.702,-9.825
1.17,0,0.063,0.147,0.351,-0.312,-8.172,-0.187,14.287,50.352,-9.825
1.27,0,0.099,0.154,0.348,-0.324,-8.074,-0.197,14.737,50.502,-11.475
1.38,0,0.103,0.153,0.375,-0.363,-8.141,-0.230,13.687,50.952,-10.275
1.48,0,0.119,0.153,0.409,-0.303,-8.135,-0.229,15.487,48.552,-9.675
1.59,0,0.097,0.146,0.337,-0.332,-8.102,-0.264,14.587,50.352,-9.075
1.70,0,0.079,0.141,0.382,-0.365,-8.100,-0.215,14.287,51.102,-11.925
1.80,0,0.073,0.140,0.409,-0.348,-8.125,-0.270,14.887,49.602,-10.125
1.90,0,0.085,0.177,0.364,-0.354,-8.125,-0.182,15.637,49.902,-10.575
2.01,0,0.086,0.179,0.403,-0.404,-8.102,-0.234,13.387,49.002,-9.975
2.12,0,0.073,0.194,0.370,-0.324,-8.092,-0.193,14.437,50.052,-11.025
2.22,0,0.041,0.207,0.308,-0.387,-8.145,-0.234,16.237,49.302,-11.025
2.33,0,0.025,0.217,0.251,-0.367,-8.133,-0.150,16.837,50.352,-11.925
2.43,0,0.005,0.197,0.199,-0.354,-8.148,-0.187,14.887,50.652,-10.125
2.53,0,0.033,0.186,0.221,-0.260,-8.152,-0.145,14.887,50.652,-10.575
2.65,0,0.006,0.190,0.229,-0.289,-8.141,-0.184,12.787,49.602,-9.825
2.74,0,-0.201,0.533,0.379,-0.098,-8.344,-0.236,14.287,48.402,-9.075
2.85,0,-0.561,2.046,0.281,-0.477,-8.445,-0.023,14.437,49.752,-11.475
2.96,0,-1.470,3.626,0.357,-0.232,-8.225,0.189,13.837,49.902,-11.925
3.06,0,-2.749,5.614,0.766,-0.164,-8.178,0.309,14.437,49.302,-15.525
3.17,0,-4.672,7.620,1.405,0.215,-8.184,0.777,11.436,50.052,-18.076
3.28,0,-6.695,10.097,1.260,-0.023,-8.082,1.322,13.830,47.644,-20.776
3.38,0,-8.965,13.173,1.426,0.363,-7.934,1.908,10.530,47.194,-23.476
3.49,0,-11.393,16.603,1.183,0.721,-7.549,2.430,10.384,45.401,-26.923
3.59,0,-14.498,19.547,-0.390,0.559,-7.480,2.953,8.887,42.706,-27.975
3.69,0,-17.843,22.418,-2.922,0.486,-7.373,3.580,9.186,40.005,-32.774
3.79,0,-21.049,25.253,-6.041,0.256,-7.008,4.057,11.136,39.705,-33.824
3.91,0,-23.658,28.364,-7.725,0.529,-6.570,4.271,9.182,36.998,-38.314
4.02,0,-26.097,31.254,-9.354,1.053,-6.404,4.777,6.933,35.804,-38.322
4.12,0,-28.541,33.500,-11.103,1.189,-5.896,5.186,8.283,33.704,-40.272
4.22,0,-30.991,35.121,-13.157,0.865,-5.879,5.443,7.083,32.503,-42.220
4.32,0,-33.052,36.144,-15.118,1.027,-5.721,5.561,8.883,29.953,-41.620
4.43,0,-35.041,37.062,-16.793,1.072,-5.627,5.871,7.083,29.053,-43.570
4.53,0,-37.033,38.152,-17.983,0.951,-5.182,6.006,8.584,26.656,-43.278
4.65,0,-39.506,39.049,-19.654,0.914,-5.043,6.344,8.584,26.656,-45.528
4.75,0,-41.211,40.576,-20.374,1.107,-4.779,6.342,8.584,23.956,-47.028
4.85,0,-42.579,42.004,-21.399,1.033,-4.602,6.320,7.531,23.202,-47.015
4.96,0,-43.303,43.665,-21.982,1.361,-4.592,6.396,6.931,22.302,-47.915
5.06,0,-44.014,45.306,-22.643,1.689,-4.215,6.600,4.531,21.702,-48.365
5.16,0,-45.149,45.583,-23.636,1.791,-3.977,6.383,4.381,21.102,-47.915
5.28,0,-46.694,44.080,-25.837,1.135,-4.090,6.816,7.081,19.302,-49.565
5.38,0,-47.175,43.680,-26.625,1.586,-4.332,6.855,7.681,20.352,-48.215
5.50,0,-48.319,43.400,-28.429,0.971,-4.188,7.039,8.281,20.502,-47.015
5.59,0,-49.719,43.904,-29.985,1.211,-4.008,6.988,8.581,18.552,-48.815
5.70,0,-51.831,44.350,-31.927,1.082,-3.844,7.008,8.581,18.252,-48.815
5.80,0,-53.639,44.713,-33.313,1.111,-3.527,7.029,8.881,16.902,-48.965
5.90,0,-54.802,45.008,-34.082,1.025,-3.502,7.113,9.031,16.602,-49.865
6.01,0,-55.036,45.115,-34.130,0.951,-3.352,6.938,8.128,16.899,-51.217
6.12,0,-54.446,45.004,-33.632,1.350,-3.631,7.020,8.428,16.149,-50.467
6.23,0,-53.355,45.044,-33.065,1.437,-3.662,7.199,7.678,17.649,-48.967
6.33,0,-53.125,44.863,-33.596,1.248,-3.854,7.191,9.178,16.899,-51.217
6.44,0,-53.517,44.902,-34.448,0.957,-3.729,7.076,6.928,16.899,-49.267
6.53,0,-53.602,44.950,-34.805,0.904,-3.494,7.068,7.678,17.949,-51.217
6.63,0,-53.178,45.314,-34.542,1.248,-3.664,7.102,7.528,18.549,-50.317
6.74,0,-53.268,45.387,-34.597,1.330,-3.725,7.170,8.278,17.799,-49.867
6.85,0,-53.690,45.569,-34.769,1.139,-3.547,6.957,6.628,17.649,-48.967
6.97,0,-54.120,45.777,-34.727,1.230,-3.609,6.998,6.628,15.699,-48.217
7.06,0,-54.066,45.659,-34.480,1.105,-3.461,7.057,7.528,16.599,-50.317
7.18,0,-53.238,45.877,-33.521,1.311,-3.730,7.049,7.678,18.399,-48.967
7.28,0,-53.061,45.723,-33.310,1.387,-3.639,7.158,8.128,16.899,-48.667
7.38,0,-53.175,45.781,-33.248,1.445,-3.633,7.127,6.328,16.299,-49.567
7.48,0,-53.806,45.521,-33.698,1.221,-3.789,6.982,6.778,16.299,-50.917
7.60,0,-54.214,45.261,-33.913,1.268,-3.598,7.156,6.628,16.449,-49.717
7.70,0,-53.950,45.323,-33.627,1.070,-3.525,7.004,7.828,16.299,-50.317
7.80,0,-53.500,45.361,-33.230,1.141,-3.594,7.150,6.628,15.699,-48.667
7.90,0,-52.934,45.520,-32.660,1.264,-3.643,7.098,8.128,17.949,-48.967
8.02,0,-52.892,45.595,-32.446,1.332,-3.752,7.092,6.328,17.049,-49.867
8.12,0,-53.161,45.913,-32.556,1.359,-3.596,7.049,6.328,15.549,-49.117
8.22,0,-53.922,46.081,-33.278,1.436,-3.566,7.094,7.078,15.099,-50.617
8.34,0,-54.665,46.152,-34.140,1.301,-3.359,7.082,7.828,15.849,-48.817
8.44,0,-54.979,46.084,-34.550,1.223,-3.391,7.057,7.078,14.649,-49.867
8.54,0,-54.818,45.798,-34.338,1.430,-3.561,7.041,6.178,16.149,-50.767
8.64,0,-54.163,45.836,-33.338,1.545,-3.727,7.170,6.928,16.449,-50.467
8.74,0,-54.180,45.652,-33.247,1.203,-3.535,7.088,6.778,15.549,-51.367
8.85,0,-54.559,45.722,-33.607,1.486,-3.510,7.207,7.378,16.149,-50.017
8.96,0,-54.780,45.843,-33.965,1.486,-3.469,7.072,7.528,16.599,-50.617
9.08,0,-54.885,45.894,-34.146,1.010,-3.385,7.037,8.128,16.899,-49.267
9.18,0,-54.716,45.844,-33.940,1.199,-3.496,7.066,6.328,15.849,-49.867
9.28,0,-54.351,46.068,-33.541,1.520,-3.500,7.105,6.778,16.599,-50.617
9.38,0,-54.423,46.126,-33.653,1.486,-3.555,7.150,6.328,16.299,-50.917
9.48,0,-54.846,46.090,-34.179,1.406,-3.396,7.229,6.778,16.599,-49.117
9.58,0,-55.155,46.138,-34.563,1.299,-3.404,7.135,6.778,15.099,-50.617
9.70,0,-55.134,46.265,-34.646,1.240,-3.291,7.064,6.028,15.549,-50.617
9.80,0,-54.854,46.554,-34.464,1.643,-3.518,7.150,6.928,14.949,-49.717
9.91,0,-54.541,46.627,-34.059,1.518,-3.469,7.133,6.178,15.249,-50.467
10.02,0,-54.493,46.607,-33.842,1.537,-3.551,7.160,5.578,14.649,-49.567
10.13,0,-54.621,46.641,-33.870,1.393,-3.502,7.086,6.178,16.149,-49.717
10.23,0,-54.871,46.671,-34.155,1.459,-3.465,7.146,5.878,15.699,-50.467
10.33,0,-54.942,46.740,-34.376,1.496,-3.391,7.143,5.278,14.649,-50.617
10.43,0,-54.988,46.709,-34.522,1.475,-3.418,7.158,6.628,16.449,-50.467
10.55,0,-54.943,46.656,-34.473,1.240,-3.318,7.148,6.628,16.149,-49.717
10.64,0,-54.574,46.904,-34.028,1.604,-3.443,7.172,5.578,15.849,-49.867
10.76,0,-54.638,46.848,-34.049,1.613,-3.482,7.205,7.078,17.049,-49.867
10.86,0,-54.947,46.959,-34.286,1.434,-3.387,7.137,5.578,15.549,-50.317
10.96,0,-55.051,47.106,-34.314,1.641,-3.467,7.094,6.778,15.099,-49.867
11.06,0,-55.026,47.149,-34.406,1.340,-3.299,6.938,6.178,15.699,-50.767
11.17,0,-54.879,47.074,-34.402,1.393,-3.309,7.105,6.178,15.249,-51.217
11.28,0,-54.528,47.271,-34.130,1.518,-3.348,7.166,6.328,16.599,-49.867
11.38,0,-54.734,47.367,-34.301,1.756,-3.406,7.156,5.278,15.549,-50.317
11.49,0,-55.222,47.251,-34.740,1.406,-3.371,7.141,5.278,15.549,-50.617
11.60,0,-55.460,47.010,-34.924,1.604,-3.350,6.934,5.128,14.949,-48.667
11.70,0,-55.082,46.912,-34.556,1.527,-3.355,7.139,5.128,15.249,-50.467
11.80,0,-54.656,46.884,-34.289,1.389,-3.480,7.316,6.028,15.099,-50.917
11.90,0,-54.418,47.332,-33.855,1.727,-3.553,7.209,6.028,15.549,-50.617
12.02,0,-54.841,47.318,-34.033,1.574,-3.350,7.010,5.878,14.499,-50.467
12.12,0,-55.160,47.285,-34.120,1.584,-3.354,7.039,6.628,15.249,-48.967
12.23,0,-55.300,47.042,-34.178,1.619,-3.203,7.172,6.028,15.099,-49.567
12.33,0,-55.209,46.651,-34.222,1.527,-3.342,7.219,6.628,14.199,-50.017
12.43,0,-54.961,46.365,-34.325,1.693,-3.469,7.242,5.578,14.649,-49.117
12.54,0,-54.605,46.087,-34.583,1.141,-3.459,7.131,5.428,15.699,-50.017
12.65,0,-53.904,46.062,-34.375,1.344,-3.488,7.008,7.678,17.199,-50.467
12.76,0,-53.179,45.841,-33.882,1.412,-3.510,6.947,6.028,17.499,-49.867
12.86,0,-52.166,44.996,-33.084,1.447,-3.572,6.928,6.929,17.200,-48.664
12.96,0,-50.107,44.559,-31.205,1.580,-3.818,6.957,6.029,18.250,-48.364
13.06,0,-48.055,44.127,-29.672,1.650,-3.898,6.852,6.929,21.550,-48.964
13.18,0,-46.280,43.112,-28.881,1.418,-3.961,6.412,7.379,21.550,-47.914
13.28,0,-43.898,41.600,-27.689,1.361,-4.322,6.264,7.829,22.000,-47.312
13.39,0,-41.211,39.431,-26.573,1.025,-4.805,6.348,9.179,26.950,-46.412
13.49,0,-38.799,36.770,-25.647,0.775,-5.307,6.180,9.181,27.704,-44.925
13.60,0,-36.290,34.753,-24.010,0.885,-5.590,5.906,9.781,29.054,-42.524
13.71,0,-34.050,32.914,-22.380,0.783,-5.840,5.744,11.881,31.604,-42.374
13.81,0,-32.026,31.179,-21.017,0.584,-5.986,5.451,10.681,33.554,-40.124
13.91,0,-29.975,29.176,-19.732,0.758,-6.008,5.123,11.577,32.950,-38.919
14.01,0,-28.464,26.508,-18.552,0.158,-6.445,4.848,12.327,35.650,-36.219
14.13,0,-25.590,23.913,-15.168,0.488,-6.824,4.223,11.877,38.500,-35.769
14.23,0,-23.325,20.147,-13.810,-0.295,-7.475,3.719,13.534,40.306,-32.625
14.33,0,-20.192,17.383,-11.099,0.346,-7.541,3.443,14.721,41.646,-29.765
14.44,0,-17.881,14.545,-10.075,-0.031,-7.771,2.986,13.671,43.146,-29.165
14.54,0,-15.715,12.170,-9.119,-0.352,-7.947,2.412,15.760,44.337,-25.109
14.65,0,-13.535,10.341,-7.929,-0.268,-8.004,1.986,15.310,44.487,-23.759
14.76,0,-11.215,8.412,-6.811,-0.537,-8.234,1.459,16.813,45.239,-21.509
14.86,0,-8.026,6.417,-4.391,-0.041,-7.785,1.053,14.863,46.739,-19.409
14.97,0,-4.910,3.566,-2.905,-0.422,-8.441,0.594,12.771,47.643,-15.652
15.07,0,-1.981,1.273,-0.234,-0.039,-8.346,0.029,13.370,51.693,-13.254
15.17,0,-1.277,0.382,0.891,0.703,-9.041,0.793,14.120,50.943,-11.454
15.29,0,-1.946,1.438,0.394,-0.486,-7.873,-0.162,14.420,50.043,-13.254
15.39,0,-1.192,1.164,1.780,-0.059,-8.139,-0.119,13.370,50.493,-12.504
15.49,0,-0.631,0.758,2.684,0.186,-8.354,0.355,13.520,49.143,-11.304
15.60,0,-0.867,1.514,2.876,-0.063,-7.998,-0.240,12.615,51.690,-11.736
15.70,0,-0.944,1.826,2.328,-0.518,-8.229,0.061,12.765,49.890,-11.886
15.82,0,-0.422,2.011,2.867,0.447,-7.906,0.117,12.315,51.390,-12.636
15.92,0,-0.174,2.331,1.909,0.043,-8.076,-0.063,12.165,50.040,-11.436
16.02,0,-0.295,2.187,1.194,-0.119,-8.270,0.158,12.165,51.690,-12.486
16.12,0,-0.293,2.211,1.724,0.035,-8.141,0.088,13.365,50.490,-12.486
16.23,0,-0.196,2.391,1.981,0.063,-8.187,-0.051,11.865,50.490,-12.486
16.33,0,0.018,2.425,1.619,-0.088,-8.055,0.115,12.015,51.090,-12.336
16.45,0,0.219,2.919,1.575,0.898,-8.338,0.012,11.565,51.390,-12.636
16.55,0,0.553,3.563,0.692,-0.129,-7.953,0.100,10.815,50.340,-13.086
16.66,0,0.525,3.154,0.578,0.045,-8.152,0.227,10.815,50.640,-12.336
16.76,0,0.437,2.943,1.530,0.418,-8.164,-0.092,12.615,50.940,-10.986
16.86,0,0.055,2.908,1.129,-0.039,-8.098,0.039,11.865,50.490,-12.486
16.96,0,0.030,2.791,1.248,0.074,-8.150,-0.037,12.015,49.590,-12.636
17.08,0,-0.385,2.605,1.093,0.121,-8.166,-0.008,13.065,51.390,-13.386
17.18,0,-0.611,2.539,0.727,-0.229,-8.113,0.111,13.515,51.090,-11.286
17.29,0,-0.615,2.521,1.018,0.014,-8.158,0.078,13.365,50.490,-14.286
17.39,0,-0.559,2.570,1.062,-0.080,-8.141,0.082,13.665,49.290,-11.736
17.50,0,-0.566,2.561,1.309,0.068,-8.104,0.105,12.765,49.890,-11.586
17.60,0,-0.542,2.607,1.244,-0.094,-8.113,0.092,12.765,50.340,-11.586
17.71,0,-0.486,2.626,1.252,0.010,-8.133,0.105,12.915,51.690,-12.486
17.82,0,-0.496,2.652,1.168,0.004,-8.119,0.078,12.915,50.940,-12.486
17.92,0,-0.457,2.677,1.105,-0.004,-8.213,0.086,12.315,49.890,-13.086
18.02,0,-0.418,2.643,0.963,0.039,-8.115,0.145,13.515,50.340,-11.886
18.13,0,-0.408,2.613,0.962,-0.092,-8.146,0.088,12.165,50.940,-11.736
18.23,0,-0.352,2.581,1.103,0.020,-8.107,0.072,13.065,50.340,-12.336
