time,IMU#,roll,pitch,yaw,accelx,accely,accelz,compassx,compassy,compassz
0.12,0,-1.482,0.866,-29.676,0.000,-8346.000,756.000,-7.950,51.600,-21.450
0.22,0,-1.477,0.894,-30.732,-60.000,-8198.000,810.000,-9.150,52.650,-22.500
0.32,0,-1.470,0.895,-31.700,10.000,-8314.000,796.000,-8.700,51.900,-21.750
0.44,0,-1.469,0.896,-32.640,-88.000,-8264.000,834.000,-8.250,52.950,-20.850
0.55,0,-1.465,0.874,-33.556,-118.000,-8320.000,818.000,-9.900,51.900,-21.150
0.64,0,-1.440,0.779,-34.358,-74.000,-8348.000,786.000,-7.800,52.950,-22.050
0.75,0,-1.398,0.522,-35.153,-82.000,-8314.000,828.000,-7.950,51.900,-22.950
0.86,0,-1.309,0.163,-36.063,32.000,-8110.000,926.000,-8.700,52.650,-24.000
0.95,0,-1.189,0.062,-37.068,54.000,-8200.000,980.000,-9.150,51.900,-21.750
1.06,0,-1.142,0.207,-38.139,-78.000,-8224.000,940.000,-7.200,52.650,-21.150
1.17,0,-1.104,0.381,-39.119,-112.000,-8302.000,954.000,-8.550,51.300,-22.350
1.28,0,-1.035,0.460,-40.033,-6.000,-8260.000,906.000,-9.000,51.000,-22.800
1.37,0,-0.991,0.502,-40.979,-138.000,-8262.000,906.000,-8.700,52.650,-21.150
1.50,0,-1.069,0.609,-41.767,-96.000,-8294.000,868.000,-8.400,51.600,-22.950
1.60,0,-1.158,0.716,-42.601,-72.000,-8246.000,882.000,-9.000,52.200,-22.800
1.69,0,-1.202,0.755,-43.386,-86.000,-8282.000,842.000,-7.500,51.300,-22.050
1.80,0,-1.197,0.721,-44.164,-78.000,-8190.000,872.000,-7.500,52.500,-22.350
1.91,0,-1.199,0.718,-44.959,-62.000,-8272.000,836.000,-7.950,52.350,-20.700
2.02,0,-1.203,0.741,-45.776,-70.000,-8278.000,808.000,-7.950,50.850,-20.400
2.12,0,-1.214,0.759,-46.599,-64.000,-8202.000,850.000,-8.400,53.850,-22.500
2.22,0,-1.221,0.768,-47.374,-94.000,-8220.000,852.000,-7.500,52.950,-22.800
2.33,0,-1.196,0.785,-48.150,-74.000,-8224.000,868.000,-9.300,51.750,-22.350
2.45,0,-1.146,0.819,-48.933,-50.000,-8236.000,844.000,-8.250,51.750,-22.350
2.54,0,-1.121,0.854,-49.678,-70.000,-8224.000,824.000,-10.200,53.850,-22.200
2.65,0,-1.123,0.903,-50.412,-118.000,-8248.000,910.000,-7.800,51.750,-21.600
2.76,0,-1.156,0.907,-51.116,-70.000,-8252.000,838.000,-7.650,51.600,-22.950
2.85,0,-1.191,0.881,-51.797,-104.000,-8272.000,842.000,-8.550,52.200,-22.050
2.96,0,-1.274,0.896,-52.451,-16.000,-8198.000,820.000,-7.950,52.650,-21.750
3.07,0,-1.350,0.916,-53.132,28.000,-8222.000,824.000,-8.400,52.650,-21.750
3.18,0,-1.391,0.921,-53.801,-82.000,-8300.000,818.000,-8.250,52.950,-21.600
3.29,0,-1.351,0.889,-54.473,-80.000,-8230.000,852.000,-8.700,53.100,-21.750
3.37,0,-1.252,0.809,-55.152,-126.000,-8268.000,872.000,-8.400,52.350,-21.750
3.49,0,-1.196,0.721,-55.787,-54.000,-8290.000,870.000,-7.200,52.350,-21.750
3.59,0,-1.162,0.520,-56.492,-78.000,-8280.000,892.000,-8.550,52.200,-23.550
3.71,0,-1.147,0.197,-57.206,-18.000,-8270.000,916.000,-7.500,51.750,-23.100
3.81,0,-1.159,-0.237,-57.936,-8.000,-8302.000,1016.000,-9.300,53.700,-22.350
3.92,0,-1.155,-0.768,-58.741,-50.000,-8194.000,1066.000,-8.400,51.900,-22.950
4.01,0,-1.066,-1.504,-59.655,-66.000,-8258.000,1152.000,-8.550,52.950,-22.800
4.12,0,-0.906,-2.493,-60.706,54.000,-8242.000,1342.000,-9.000,53.250,-24.900
4.24,0,-0.591,-3.770,-61.862,12.000,-8210.000,1506.000,-9.150,54.300,-25.800
4.34,0,-0.147,-5.114,-63.091,-56.000,-8084.000,1628.000,-10.050,51.750,-27.900
4.44,0,0.223,-6.191,-64.217,160.000,-8098.000,1830.000,-9.150,52.650,-28.500
4.54,0,0.439,-7.618,-65.301,16.000,-8076.000,2024.000,-9.750,52.950,-29.700
4.65,0,0.888,-9.068,-66.318,-48.000,-7966.000,2208.000,-10.500,54.000,-32.250
4.75,0,1.410,-10.278,-67.330,34.000,-7938.000,2450.000,-9.000,52.200,-32.250
4.85,0,1.961,-11.602,-68.220,34.000,-7896.000,2680.000,-9.900,52.350,-34.650
4.97,0,2.502,-13.236,-69.055,6.000,-7840.000,2846.000,-10.500,52.500,-36.300
5.08,0,3.066,-14.837,-69.775,38.000,-7728.000,3012.000,-8.700,52.650,-37.950
5.18,0,3.790,-16.224,-70.860,-74.000,-7638.000,3278.000,-9.300,52.950,-39.000
5.29,0,4.375,-17.590,-71.448,-98.000,-7586.000,3474.000,-8.700,51.150,-42.000
5.38,0,4.943,-19.068,-71.805,-76.000,-7388.000,3644.000,-9.900,50.850,-43.950
5.49,0,5.685,-20.350,-72.496,-116.000,-7312.000,3812.000,-7.800,50.550,-44.100
5.60,0,6.570,-21.380,-73.366,-156.000,-7208.000,4032.000,-7.950,50.400,-45.300
5.71,0,7.375,-22.430,-73.993,-334.000,-7088.000,4188.000,-7.200,51.150,-47.550
5.82,0,8.114,-23.564,-74.535,-262.000,-7112.000,4396.000,-7.050,48.600,-48.150
5.92,0,8.985,-24.918,-75.306,-398.000,-6886.000,4472.000,-8.700,49.200,-48.750
6.02,0,9.871,-26.319,-76.125,-312.000,-6750.000,4590.000,-6.900,47.700,-50.850
6.13,0,10.773,-27.593,-77.100,-418.000,-6588.000,4776.000,-6.750,46.350,-51.750
6.24,0,11.827,-28.734,-78.112,-512.000,-6568.000,4998.000,-7.200,47.250,-53.850
6.34,0,12.638,-29.873,-78.735,-620.000,-6342.000,5092.000,-6.300,44.400,-54.750
6.44,0,13.474,-30.818,-79.279,-468.000,-6404.000,5382.000,-4.800,45.150,-55.800
6.55,0,14.418,-31.869,-80.016,-722.000,-6228.000,5532.000,-5.250,44.850,-56.550
6.65,0,15.352,-33.244,-80.496,-724.000,-6040.000,5666.000,-4.650,43.050,-58.950
6.75,0,16.433,-34.748,-81.187,-630.000,-5908.000,5810.000,-5.550,41.700,-60.300
6.86,0,17.361,-36.483,-81.692,-590.000,-5680.000,6088.000,-4.800,42.150,-61.050
6.95,0,18.331,-38.376,-82.271,-656.000,-5480.000,6180.000,-4.200,39.600,-62.700
7.07,0,19.641,-40.060,-83.184,-618.000,-5180.000,6302.000,-5.550,38.250,-65.400
7.18,0,20.892,-41.580,-83.998,-684.000,-5046.000,6498.000,-6.150,38.850,-67.500
7.29,0,21.870,-43.085,-84.556,-734.000,-4744.000,6596.000,-4.800,37.800,-68.700
7.40,0,22.364,-44.591,-84.550,-504.000,-4674.000,6712.000,-4.200,34.500,-69.300
7.50,0,23.428,-45.865,-85.168,-680.000,-4530.000,6908.000,-4.650,33.750,-70.050
7.60,0,23.874,-47.267,-85.193,-354.000,-4214.000,6994.000,-4.500,35.550,-72.000
7.71,0,24.665,-48.584,-85.612,-356.000,-4122.000,7126.000,-4.650,33.000,-71.850
7.82,0,25.454,-49.947,-86.064,-432.000,-3914.000,7140.000,-6.300,30.450,-74.250
7.92,0,26.333,-51.300,-86.569,-434.000,-3900.000,7254.000,-5.700,29.550,-75.900
8.02,0,27.118,-52.652,-87.002,-324.000,-3610.000,7414.000,-6.300,28.950,-77.250
8.13,0,27.670,-54.100,-87.180,-108.000,-3454.000,7456.000,-6.300,28.500,-77.250
8.22,0,28.460,-55.421,-87.662,-190.000,-3250.000,7452.000,-7.050,26.550,-76.500
8.33,0,29.444,-56.589,-88.319,-140.000,-3064.000,7550.000,-7.200,24.900,-77.400
8.45,0,30.142,-57.653,-88.556,-92.000,-2896.000,7672.000,-7.800,24.750,-79.050
8.54,0,31.509,-58.694,-89.506,80.000,-2732.000,7822.000,-6.900,23.700,-79.650
8.66,0,33.208,-59.843,-90.872,-276.000,-2616.000,7742.000,-7.650,21.450,-81.000
8.76,0,34.663,-61.023,-91.958,22.000,-2380.000,7934.000,-7.950,20.550,-81.450
8.87,0,36.084,-62.264,-93.050,34.000,-2234.000,7944.000,-8.550,18.150,-83.400
8.98,0,37.904,-63.336,-94.549,-238.000,-1964.000,7928.000,-7.050,18.900,-82.350
9.07,0,39.144,-64.282,-95.402,-108.000,-1796.000,7876.000,-7.650,17.100,-82.950
9.18,0,40.597,-65.035,-96.483,-62.000,-1668.000,8076.000,-7.650,15.900,-84.300
9.29,0,42.165,-65.821,-97.576,342.000,-1488.000,8138.000,-7.200,14.400,-84.300
9.38,0,44.208,-66.559,-99.333,82.000,-1374.000,8148.000,-7.650,12.450,-84.000
9.49,0,46.569,-67.089,-101.323,68.000,-1186.000,8118.000,-8.400,12.900,-85.800
9.60,0,48.370,-67.695,-102.775,-14.000,-1058.000,8224.000,-7.650,12.150,-86.250
9.71,0,50.326,-68.433,-104.362,-112.000,-1000.000,8164.000,-7.050,9.600,-85.350
9.82,0,52.366,-69.261,-106.051,36.000,-756.000,8038.000,-7.950,10.200,-86.250
9.92,0,54.037,-69.703,-107.379,-20.000,-632.000,8192.000,-7.200,8.700,-86.550
10.04,0,55.035,-70.182,-108.111,266.000,-622.000,8006.000,-7.200,8.700,-87.300
10.13,0,55.664,-70.353,-108.555,78.000,-532.000,8118.000,-9.150,8.700,-87.300
10.24,0,55.954,-70.286,-108.629,134.000,-494.000,8246.000,-9.150,9.000,-85.800
10.34,0,55.768,-70.329,-108.342,170.000,-554.000,8206.000,-8.250,9.600,-87.150
10.45,0,55.673,-70.250,-108.084,210.000,-632.000,8162.000,-9.900,8.700,-86.250
10.55,0,55.591,-69.892,-107.893,136.000,-558.000,8162.000,-9.150,7.500,-88.050
10.66,0,55.579,-69.576,-107.794,70.000,-750.000,8252.000,-7.650,8.250,-86.550
10.76,0,55.449,-69.561,-107.615,100.000,-666.000,8174.000,-7.650,8.250,-87.300
10.87,0,55.554,-69.590,-107.572,8.000,-608.000,8170.000,-7.650,7.800,-87.000
10.98,0,55.719,-69.585,-107.540,72.000,-574.000,8148.000,-8.250,8.850,-86.700
11.09,0,55.805,-69.563,-107.438,-6.000,-652.000,8194.000,-6.900,8.700,-87.300
11.18,0,56.022,-69.515,-107.384,46.000,-626.000,8184.000,-7.200,8.700,-86.550
11.29,0,56.129,-69.560,-107.263,28.000,-586.000,8206.000,-7.650,8.250,-87.300
11.40,0,56.336,-69.548,-107.204,72.000,-640.000,8166.000,-8.550,8.100,-86.100
11.50,0,56.436,-69.491,-107.068,-84.000,-618.000,8180.000,-7.050,7.200,-87.150
11.61,0,56.498,-69.490,-106.937,48.000,-678.000,8246.000,-6.750,8.850,-87.450
11.70,0,56.644,-69.550,-106.911,44.000,-662.000,8204.000,-7.800,8.400,-85.650
11.81,0,56.784,-69.580,-106.814,116.000,-632.000,8204.000,-7.950,9.750,-86.250
11.92,0,56.875,-69.605,-106.716,102.000,-534.000,8222.000,-8.550,7.650,-86.400
12.02,0,56.904,-69.591,-106.604,98.000,-608.000,8114.000,-9.150,7.500,-85.800
12.14,0,56.915,-69.546,-106.534,68.000,-568.000,8162.000,-7.800,8.400,-86.400
12.24,0,56.932,-69.605,-106.435,18.000,-546.000,8152.000,-7.050,7.200,-87.450
12.35,0,57.005,-69.588,-106.323,-22.000,-576.000,8156.000,-8.250,7.650,-86.700
12.44,0,57.199,-69.470,-106.422,60.000,-480.000,8094.000,-7.650,8.250,-87.300
12.55,0,57.428,-69.236,-106.504,24.000,-584.000,8200.000,-7.650,8.250,-87.000
12.66,0,57.539,-69.183,-106.418,10.000,-528.000,8172.000,-6.000,8.400,-87.450
12.77,0,57.687,-69.220,-106.336,0.000,-650.000,8206.000,-7.500,8.100,-87.150
12.86,0,57.885,-69.262,-106.334,-18.000,-544.000,8102.000,-8.250,8.100,-86.100
12.97,0,58.134,-69.054,-106.377,-70.000,-524.000,8254.000,-6.750,7.200,-86.400
13.08,0,57.998,-68.946,-105.995,-64.000,-640.000,8208.000,-7.200,8.700,-85.800
13.19,0,57.951,-68.985,-105.702,-16.000,-542.000,8226.000,-6.750,8.100,-87.450
13.30,0,58.139,-69.121,-105.579,-42.000,-540.000,8190.000,-6.300,6.900,-86.700
13.40,0,58.400,-69.099,-105.549,-20.000,-506.000,8222.000,-7.800,8.100,-86.700
13.51,0,58.534,-69.000,-105.463,10.000,-518.000,8114.000,-6.450,7.800,-87.000
13.61,0,58.453,-68.897,-105.250,50.000,-526.000,8172.000,-5.400,8.250,-87.000
13.72,0,58.532,-68.866,-105.250,-14.000,-496.000,8178.000,-6.750,7.650,-87.150
13.83,0,58.532,-68.867,-105.153,-174.000,-580.000,8270.000,-6.750,8.850,-86.100
13.92,0,58.478,-68.879,-104.923,-122.000,-582.000,8100.000,-7.050,7.650,-86.700
14.03,0,58.298,-68.850,-104.655,-116.000,-506.000,8190.000,-6.000,9.150,-86.400
14.14,0,58.367,-68.741,-104.606,-2.000,-516.000,8212.000,-7.050,6.900,-88.200
14.23,0,58.544,-68.731,-104.642,-34.000,-554.000,8218.000,-6.900,7.500,-86.250
14.34,0,58.575,-68.779,-104.451,-24.000,-532.000,8156.000,-7.500,7.200,-86.700
14.45,0,58.568,-68.795,-104.289,-10.000,-526.000,8142.000,-6.300,6.900,-87.450
14.56,0,58.538,-68.792,-104.114,-104.000,-448.000,8244.000,-6.750,7.200,-87.450
14.67,0,58.604,-68.774,-103.983,-78.000,-558.000,8190.000,-6.750,7.200,-87.900
14.78,0,58.571,-68.834,-103.771,0.000,-618.000,8152.000,-6.450,7.500,-88.050
14.87,0,58.630,-68.795,-103.683,-134.000,-524.000,8178.000,-6.300,8.850,-87.150
14.98,0,58.691,-68.745,-103.592,-100.000,-566.000,8126.000,-7.650,7.500,-86.550
15.09,0,58.661,-68.834,-103.488,66.000,-496.000,8194.000,-6.300,8.850,-87.150
15.18,0,58.722,-68.879,-103.371,30.000,-526.000,8118.000,-7.500,8.850,-87.450
15.29,0,58.669,-68.915,-103.220,-44.000,-438.000,8142.000,-8.250,7.650,-87.900
15.40,0,58.600,-68.919,-103.022,-26.000,-522.000,8146.000,-6.450,7.800,-87.750
15.49,0,58.531,-68.945,-102.899,48.000,-530.000,8184.000,-7.200,7.500,-86.550
15.60,0,58.568,-68.863,-102.885,-162.000,-538.000,8186.000,-6.900,8.250,-88.050
15.71,0,58.674,-68.679,-102.889,6.000,-582.000,8148.000,-6.300,8.400,-86.700
15.82,0,58.834,-68.627,-102.897,22.000,-512.000,8254.000,-6.750,8.850,-87.150
15.93,0,58.887,-68.672,-102.821,-76.000,-606.000,8194.000,-6.450,7.500,-87.750
16.04,0,58.943,-68.565,-102.755,-106.000,-516.000,8084.000,-6.150,8.250,-86.250
16.13,0,59.011,-68.405,-102.651,-268.000,-532.000,8184.000,-7.800,6.450,-87.150
16.24,0,59.030,-68.366,-102.476,-124.000,-582.000,8232.000,-7.650,7.800,-87.300
16.35,0,59.140,-68.495,-102.427,-168.000,-648.000,8194.000,-6.750,8.100,-86.700
16.44,0,59.121,-68.702,-102.235,-4.000,-568.000,8192.000,-7.200,8.700,-85.800
16.57,0,59.195,-68.773,-102.220,-48.000,-560.000,8190.000,-6.750,6.900,-87.900
16.66,0,59.196,-68.741,-102.124,-64.000,-524.000,8224.000,-7.200,7.800,-86.250
16.77,0,59.149,-68.727,-101.940,-28.000,-516.000,8198.000,-6.900,7.500,-86.250
16.88,0,59.090,-68.706,-101.761,12.000,-488.000,8190.000,-6.150,7.800,-87.300
16.97,0,59.191,-68.593,-101.738,-168.000,-524.000,8182.000,-5.700,8.250,-87.300
17.08,0,59.279,-68.558,-101.739,-200.000,-540.000,8216.000,-6.300,8.400,-86.400
17.19,0,59.348,-68.535,-101.648,-108.000,-484.000,8160.000,-7.050,8.100,-86.700
17.30,0,59.370,-68.466,-101.549,-138.000,-506.000,8172.000,-6.750,7.650,-86.400
17.41,0,59.324,-68.458,-101.354,-14.000,-562.000,8122.000,-5.700,7.800,-85.050
17.50,0,59.421,-68.455,-101.258,-68.000,-496.000,8208.000,-7.200,7.500,-86.250
17.61,0,59.430,-68.330,-101.045,-92.000,-510.000,8218.000,-6.750,7.200,-86.700
17.71,0,59.243,-68.217,-100.686,-54.000,-608.000,8184.000,-4.050,8.100,-87.900
17.82,0,59.254,-68.182,-100.520,-130.000,-636.000,8156.000,-6.000,7.200,-86.400
17.93,0,59.339,-68.261,-100.419,-22.000,-538.000,8138.000,-7.050,7.650,-87.150
18.04,0,59.474,-68.256,-100.409,-44.000,-512.000,8196.000,-7.050,7.200,-87.450
18.15,0,59.515,-68.189,-100.326,-116.000,-546.000,8170.000,-5.550,6.450,-86.400
18.25,0,59.630,-68.149,-100.312,-224.000,-578.000,8206.000,-5.700,6.300,-87.000
18.35,0,59.604,-68.259,-100.186,-140.000,-470.000,8166.000,-6.450,7.500,-88.350
18.46,0,59.641,-68.261,-100.096,-94.000,-528.000,8116.000,-7.200,6.750,-87.750
18.56,0,59.592,-68.202,-99.850,-6.000,-566.000,8206.000,-6.300,8.400,-87.900
18.67,0,59.778,-68.188,-99.910,-64.000,-494.000,8166.000,-6.450,6.300,-88.350
18.76,0,59.984,-68.224,-100.001,-172.000,-490.000,8170.000,-6.150,7.500,-87.750
18.89,0,60.045,-68.141,-99.940,-146.000,-490.000,8220.000,-5.700,6.750,-87.750
18.98,0,60.176,-68.098,-99.953,-220.000,-480.000,8228.000,-5.700,7.500,-87.000
19.09,0,60.245,-68.165,-99.909,-206.000,-510.000,8186.000,-6.450,8.250,-87.000
19.20,0,60.298,-68.157,-99.854,-220.000,-512.000,8196.000,-5.400,7.050,-87.000
19.31,0,60.403,-68.110,-99.830,-38.000,-460.000,8196.000,-5.550,8.100,-86.700
19.40,0,60.346,-68.067,-99.654,-202.000,-514.000,8214.000,-6.000,8.850,-86.700
19.51,0,60.474,-68.050,-99.657,-106.000,-466.000,8266.000,-4.800,7.650,-87.150
19.62,0,60.568,-68.090,-99.584,-256.000,-520.000,8164.000,-5.700,6.750,-87.000
19.71,0,60.467,-68.045,-99.302,-196.000,-418.000,8190.000,-5.400,7.500,-87.300
19.82,0,60.390,-67.999,-99.097,-44.000,-490.000,8150.000,-6.000,8.850,-87.900
19.93,0,60.291,-68.007,-98.892,-160.000,-564.000,8142.000,-6.750,7.200,-86.700
20.04,0,60.221,-68.017,-98.813,-106.000,-592.000,8284.000,-6.000,6.900,-87.450
20.14,0,60.314,-68.142,-98.899,-186.000,-476.000,8148.000,-5.700,7.500,-86.550
20.25,0,60.370,-68.111,-98.926,-120.000,-466.000,8072.000,-5.550,7.200,-88.650
20.35,0,60.446,-67.732,-98.938,-308.000,-540.000,8214.000,-6.000,8.400,-86.700
20.46,0,60.421,-67.502,-98.870,-310.000,-518.000,8248.000,-4.650,7.050,-87.000
20.57,0,60.571,-67.392,-98.883,-340.000,-538.000,8174.000,-4.950,7.500,-86.550
20.68,0,60.703,-67.396,-98.835,-260.000,-532.000,8256.000,-4.200,8.700,-86.550
20.77,0,61.032,-67.517,-98.947,-274.000,-508.000,8204.000,-4.950,6.750,-87.300
20.88,0,61.877,-67.903,-99.454,-190.000,-528.000,8128.000,-5.700,6.750,-86.550
20.98,0,62.546,-68.391,-99.801,-96.000,-340.000,8298.000,-4.200,6.750,-87.300
21.09,0,63.226,-68.700,-100.169,-136.000,-306.000,8138.000,-4.650,7.050,-88.050
21.19,0,63.492,-68.705,-100.211,-118.000,-316.000,8136.000,-5.550,6.150,-87.450
21.29,0,63.212,-68.379,-99.814,-200.000,-284.000,8154.000,-4.800,5.700,-87.150
21.40,0,63.010,-68.018,-99.534,-308.000,-430.000,8282.000,-5.700,7.800,-87.300
21.51,0,62.727,-67.894,-99.155,-234.000,-346.000,8010.000,-5.550,7.650,-87.900
21.62,0,62.358,-67.538,-98.658,-128.000,-404.000,8038.000,-4.500,6.450,-86.700
21.73,0,62.053,-66.580,-98.199,-438.000,-526.000,8180.000,-4.500,8.400,-87.150
21.82,0,61.177,-66.012,-97.300,-346.000,-548.000,8184.000,-2.700,6.750,-86.250
21.93,0,60.629,-65.192,-96.674,-494.000,-734.000,8148.000,-3.450,8.250,-86.550
22.04,0,59.924,-64.642,-95.947,-504.000,-788.000,8228.000,-3.900,9.450,-86.250
22.14,0,59.457,-64.286,-95.421,-516.000,-826.000,8150.000,-3.300,9.600,-84.150
22.25,0,59.242,-63.949,-95.106,-708.000,-814.000,8166.000,-0.750,8.400,-86.700
22.36,0,58.991,-63.639,-94.830,-678.000,-874.000,8214.000,-1.650,9.450,-85.050
22.45,0,58.668,-63.354,-94.502,-610.000,-924.000,8098.000,-1.650,9.750,-85.500
22.58,0,58.234,-62.989,-94.130,-738.000,-926.000,8096.000,-1.950,11.400,-84.300
22.67,0,57.822,-62.539,-93.772,-792.000,-1024.000,8054.000,-0.300,10.800,-86.100
22.78,0,57.399,-62.102,-93.368,-898.000,-1058.000,8070.000,-0.150,10.950,-84.300
22.88,0,56.863,-61.680,-92.788,-976.000,-1088.000,8022.000,0.000,13.050,-85.350
22.99,0,56.259,-61.144,-92.170,-922.000,-1190.000,7970.000,1.050,11.850,-86.700
23.10,0,55.535,-60.589,-91.452,-998.000,-1242.000,7996.000,-0.150,12.450,-84.300
23.19,0,54.595,-60.151,-90.533,-1010.000,-1420.000,8050.000,0.300,14.250,-85.350
23.30,0,53.909,-59.636,-89.849,-964.000,-1432.000,8014.000,-0.300,12.750,-83.100
23.41,0,53.106,-59.165,-89.152,-938.000,-1464.000,7992.000,1.950,13.200,-83.250
23.50,0,52.063,-58.802,-88.188,-1014.000,-1646.000,8072.000,1.650,15.150,-83.700
23.61,0,51.395,-58.252,-87.640,-982.000,-1696.000,7980.000,0.900,15.150,-83.250
23.72,0,50.892,-57.763,-87.178,-1080.000,-1782.000,7904.000,1.500,15.000,-82.350
23.83,0,49.998,-57.302,-86.379,-1160.000,-1770.000,7852.000,1.200,15.900,-82.200
23.93,0,49.166,-56.676,-85.644,-1088.000,-1976.000,7900.000,0.450,16.350,-81.000
24.04,0,48.581,-56.014,-85.225,-1304.000,-2088.000,7904.000,0.900,17.850,-81.450
24.15,0,47.956,-55.649,-84.702,-1210.000,-2156.000,7920.000,0.900,18.750,-80.700
24.26,0,47.392,-55.302,-84.228,-1290.000,-2226.000,7836.000,2.400,17.850,-80.700
24.35,0,46.739,-54.923,-83.740,-1072.000,-2292.000,7724.000,2.250,20.100,-80.100
24.46,0,45.986,-54.395,-83.231,-1118.000,-2330.000,7704.000,1.950,20.250,-79.650
24.57,0,45.342,-53.838,-82.802,-1230.000,-2448.000,7730.000,2.700,20.550,-79.950
24.66,0,44.780,-53.191,-82.419,-1140.000,-2494.000,7662.000,3.000,20.100,-79.350
24.77,0,44.365,-52.501,-82.172,-1316.000,-2698.000,7690.000,2.550,21.600,-78.600
24.88,0,44.108,-51.731,-82.090,-1504.000,-2726.000,7620.000,2.400,22.200,-77.700
24.98,0,43.644,-51.011,-81.724,-1518.000,-2824.000,7604.000,4.500,20.850,-77.550
25.10,0,42.850,-50.355,-81.032,-1564.000,-2918.000,7476.000,3.750,23.850,-76.800
25.19,0,42.033,-49.745,-80.406,-1618.000,-2956.000,7626.000,4.050,24.750,-77.250
25.32,0,41.551,-49.226,-80.065,-1518.000,-3116.000,7486.000,3.750,23.550,-75.750
25.41,0,41.189,-48.701,-79.846,-1554.000,-3156.000,7392.000,3.300,24.300,-76.500
25.52,0,40.768,-48.084,-79.604,-1580.000,-3222.000,7412.000,4.050,25.050,-75.750
25.63,0,40.105,-47.657,-79.126,-1614.000,-3326.000,7446.000,3.300,25.500,-75.750
25.73,0,39.507,-47.203,-78.693,-1550.000,-3394.000,7252.000,3.450,27.900,-75.150
25.83,0,38.980,-46.507,-78.282,-1702.000,-3488.000,7280.000,4.950,26.400,-72.900
25.93,0,38.229,-45.902,-77.672,-1608.000,-3632.000,7274.000,3.900,27.150,-75.900
26.04,0,37.495,-45.375,-77.204,-1606.000,-3648.000,7310.000,5.250,27.750,-73.950
26.15,0,37.094,-44.968,-77.043,-1570.000,-3828.000,7134.000,3.150,29.850,-73.650
26.25,0,36.762,-44.579,-76.928,-1542.000,-3834.000,7126.000,4.800,30.150,-72.750
26.35,0,36.375,-44.182,-76.774,-1582.000,-3838.000,7052.000,3.900,29.100,-73.350
26.46,0,36.188,-43.681,-76.828,-1594.000,-3904.000,7034.000,4.950,29.100,-72.900
26.57,0,35.967,-43.199,-76.846,-1588.000,-3960.000,6966.000,4.950,29.550,-73.650
26.67,0,35.812,-42.567,-76.912,-1612.000,-4092.000,7010.000,5.700,29.100,-71.100
26.77,0,35.423,-41.933,-76.794,-1712.000,-4166.000,6854.000,4.200,29.850,-70.350
26.90,0,34.802,-41.386,-76.478,-1678.000,-4258.000,6828.000,4.950,31.500,-71.100
26.99,0,34.354,-40.771,-76.363,-1716.000,-4384.000,6808.000,4.950,32.550,-69.600
27.10,0,33.704,-40.235,-76.119,-1780.000,-4374.000,6842.000,4.050,32.850,-69.150
27.21,0,33.002,-39.547,-75.817,-1788.000,-4598.000,6582.000,5.250,33.900,-68.700
27.30,0,32.426,-38.800,-75.656,-1848.000,-4606.000,6642.000,3.150,34.500,-68.250
27.41,0,31.935,-38.193,-75.531,-1844.000,-4642.000,6568.000,4.950,34.200,-67.800
27.52,0,31.541,-37.613,-75.400,-1828.000,-4806.000,6464.000,3.900,34.950,-67.800
27.63,0,31.175,-36.994,-75.248,-1758.000,-4828.000,6448.000,4.950,35.250,-66.750
27.72,0,30.724,-36.266,-75.080,-1694.000,-4934.000,6322.000,5.250,35.550,-66.150
27.83,0,30.176,-35.421,-74.996,-1788.000,-4970.000,6262.000,3.150,36.450,-64.200
27.94,0,29.576,-34.518,-74.889,-1816.000,-5118.000,6258.000,4.800,36.300,-63.900
28.03,0,28.668,-33.694,-74.566,-1784.000,-5254.000,6076.000,4.950,38.400,-63.750
28.14,0,27.952,-32.671,-74.602,-1814.000,-5422.000,5974.000,3.450,38.400,-63.450
28.25,0,27.177,-31.700,-74.498,-1846.000,-5590.000,5868.000,4.650,38.850,-61.950
28.36,0,26.493,-30.720,-74.320,-1760.000,-5594.000,5744.000,5.400,39.150,-61.200
28.47,0,25.873,-29.677,-74.179,-1982.000,-5834.000,5582.000,4.050,39.300,-59.100
28.57,0,25.156,-28.437,-73.967,-1894.000,-5876.000,5456.000,4.950,41.100,-58.200
28.67,0,23.885,-27.400,-73.303,-1716.000,-6082.000,5406.000,3.450,42.300,-57.900
28.78,0,22.978,-26.350,-72.680,-1728.000,-6208.000,5202.000,2.700,42.600,-56.850
28.89,0,21.925,-25.322,-71.831,-1696.000,-6262.000,5012.000,4.200,43.800,-55.650
28.99,0,21.043,-24.336,-71.301,-1596.000,-6506.000,5006.000,3.450,45.000,-53.100
29.09,0,20.461,-23.333,-71.062,-1556.000,-6550.000,4768.000,4.050,45.150,-52.500
29.20,0,19.812,-22.314,-70.933,-1612.000,-6598.000,4580.000,2.250,44.400,-53.250
29.31,0,19.180,-21.354,-70.860,-1622.000,-6782.000,4572.000,3.450,46.950,-50.100
29.42,0,18.634,-20.486,-70.688,-1632.000,-6768.000,4422.000,1.500,46.350,-49.950
29.52,0,18.065,-19.671,-70.366,-1506.000,-6958.000,4346.000,2.250,47.100,-48.900
29.63,0,17.607,-18.813,-70.177,-1590.000,-6934.000,4206.000,2.400,47.250,-48.000
29.72,0,16.939,-17.964,-69.985,-1492.000,-7046.000,3984.000,0.150,47.250,-46.500
29.83,0,16.201,-17.055,-69.634,-1506.000,-7140.000,3964.000,1.800,47.100,-44.400
29.94,0,15.649,-16.263,-69.531,-1420.000,-7320.000,3872.000,1.800,48.300,-45.150
30.05,0,15.194,-15.674,-69.472,-1478.000,-7340.000,3782.000,0.300,48.300,-43.650
30.16,0,14.826,-15.099,-69.607,-1382.000,-7304.000,3562.000,1.650,49.200,-43.200
30.26,0,14.436,-14.440,-69.916,-1382.000,-7336.000,3544.000,0.150,48.000,-42.450
30.36,0,14.023,-13.766,-70.098,-1416.000,-7444.000,3376.000,0.750,49.800,-43.350
30.47,0,13.512,-12.983,-70.209,-1314.000,-7470.000,3278.000,-0.150,50.850,-41.250
30.57,0,13.056,-12.169,-70.110,-1364.000,-7582.000,3248.000,-0.750,50.550,-40.050
30.67,0,12.672,-11.413,-70.239,-1284.000,-7550.000,3140.000,0.300,49.800,-39.000
30.78,0,12.232,-10.693,-70.069,-1216.000,-7596.000,2898.000,0.450,50.400,-36.900
30.90,0,11.762,-9.897,-70.080,-1258.000,-7652.000,2878.000,1.200,51.150,-37.200
31.01,0,11.315,-9.073,-70.026,-1202.000,-7742.000,2764.000,1.050,51.000,-36.000
31.11,0,10.917,-8.277,-70.042,-1250.000,-7858.000,2646.000,-0.300,51.000,-34.200
31.21,0,10.510,-7.540,-70.144,-1174.000,-7836.000,2452.000,-1.050,50.550,-34.200
31.32,0,10.108,-6.859,-70.097,-1166.000,-7874.000,2446.000,-1.200,52.350,-33.600
31.42,0,9.736,-6.203,-70.091,-1198.000,-7896.000,2284.000,-0.300,52.200,-32.700
31.53,0,9.299,-5.607,-70.094,-1008.000,-7956.000,2228.000,-1.050,51.300,-31.950
31.63,0,8.781,-4.928,-70.222,-1098.000,-7964.000,2094.000,-1.500,50.250,-31.950
31.73,0,8.009,-3.926,-70.100,-1034.000,-8016.000,1874.000,-0.900,51.900,-29.550
31.84,0,7.295,-2.818,-69.996,-952.000,-8078.000,1808.000,-1.800,53.250,-27.450
31.95,0,6.551,-1.673,-70.027,-1318.000,-8356.000,1686.000,-2.700,51.600,-28.800
32.05,0,5.776,-0.436,-69.909,-874.000,-8198.000,1356.000,-2.550,51.750,-26.400
32.15,0,5.050,0.466,-69.465,-874.000,-8258.000,1230.000,-4.650,51.600,-24.450
32.26,0,4.341,1.001,-68.849,-754.000,-8158.000,1018.000,-3.900,53.100,-24.000
32.37,0,3.897,1.668,-68.763,-638.000,-8262.000,1060.000,-3.450,51.900,-22.950
32.47,0,3.756,1.956,-69.049,-696.000,-8238.000,926.000,-4.050,51.750,-22.350
32.57,0,3.892,1.997,-69.479,-688.000,-8222.000,1026.000,-4.200,53.550,-21.450
32.68,0,4.061,1.977,-69.919,-786.000,-8198.000,914.000,-3.750,51.300,-22.800
32.79,0,4.192,2.044,-70.407,-792.000,-8248.000,974.000,-3.450,51.900,-22.500
32.88,0,4.291,2.037,-70.758,-818.000,-8214.000,956.000,-3.900,51.150,-22.950
33.01,0,4.355,2.000,-71.012,-760.000,-8184.000,978.000,-4.500,52.500,-20.850
33.10,0,4.398,2.002,-71.327,-800.000,-8192.000,942.000,-3.450,51.600,-24.450
33.21,0,4.458,2.002,-71.612,-808.000,-8224.000,962.000,-3.150,51.150,-22.950
33.32,0,4.526,2.014,-71.889,-806.000,-8168.000,950.000,-3.300,49.800,-21.600
33.42,0,4.617,2.024,-72.207,-802.000,-8192.000,942.000,-3.300,51.750,-22.800
33.52,0,4.731,2.043,-72.650,-880.000,-8222.000,968.000,-3.450,50.400,-23.700
33.63,0,4.839,2.040,-73.081,-916.000,-8262.000,1008.000,-2.700,51.900,-22.500
33.73,0,4.928,1.990,-73.475,-916.000,-8258.000,984.000,-3.450,51.900,-22.950
33.84,0,4.938,1.928,-73.794,-902.000,-8214.000,1064.000,-2.550,53.250,-22.800
33.95,0,4.898,1.949,-74.142,-966.000,-8160.000,986.000,-1.950,52.350,-22.500
34.06,0,4.827,2.050,-74.370,-906.000,-8208.000,1030.000,-2.550,51.750,-24.150
34.17,0,4.792,2.124,-74.583,-904.000,-8226.000,928.000,-2.250,51.750,-22.350
34.26,0,4.776,2.127,-74.852,-920.000,-8182.000,986.000,-2.250,51.750,-22.050
34.37,0,4.736,2.099,-75.036,-890.000,-8186.000,954.000,-2.700,51.900,-22.500
34.46,0,4.718,2.053,-75.257,-874.000,-8174.000,1004.000,-3.450,53.100,-21.450
34.58,0,4.738,2.048,-75.490,-888.000,-8216.000,946.000,-2.550,51.000,-22.050
34.68,0,4.719,2.048,-75.638,-910.000,-8224.000,988.000,-3.750,51.300,-22.350
34.80,0,4.643,2.043,-75.765,-914.000,-8184.000,942.000,-2.550,51.750,-22.350
34.88,0,4.577,2.028,-75.927,-820.000,-8212.000,990.000,-2.550,51.300,-23.550
35.00,0,4.501,2.024,-76.073,-804.000,-8218.000,962.000,-3.900,50.850,-22.500
35.12,0,4.431,2.035,-76.254,-882.000,-8230.000,956.000,-3.000,51.300,-22.800
35.21,0,4.418,2.049,-76.494,-838.000,-8208.000,964.000,-3.750,51.750,-22.800
35.32,0,4.428,2.105,-76.715,-878.000,-8160.000,906.000,-4.800,51.750,-22.800
35.43,0,4.426,2.171,-76.961,-862.000,-8240.000,888.000,-3.450,51.900,-21.450
35.52,0,4.391,2.218,-77.155,-810.000,-8272.000,944.000,-1.650,52.650,-21.450
35.63,0,4.327,2.187,-77.262,-758.000,-8222.000,912.000,-2.250,50.250,-22.800
35.74,0,4.251,2.168,-77.475,-812.000,-8142.000,908.000,-3.750,52.950,-21.300
35.84,0,4.184,2.204,-77.756,-804.000,-8216.000,926.000,-3.450,52.350,-22.500
35.94,0,4.196,2.254,-78.081,-912.000,-8218.000,946.000,-3.750,52.500,-22.050
36.06,0,4.237,2.260,-78.229,-790.000,-8222.000,898.000,-1.950,52.350,-22.200
36.16,0,4.272,2.239,-78.329,-804.000,-8184.000,906.000,-4.050,51.000,-22.050
36.27,0,4.306,2.212,-78.445,-850.000,-8178.000,902.000,-3.300,50.250,-23.100
36.37,0,4.342,2.186,-78.485,-822.000,-8224.000,926.000,-3.450,51.600,-21.750
36.46,0,4.332,2.198,-78.567,-832.000,-8240.000,856.000,-3.450,51.600,-22.950
36.58,0,4.290,2.213,-78.670,-854.000,-8198.000,924.000,-3.900,50.850,-22.500
36.69,0,4.251,2.207,-78.826,-892.000,-8214.000,924.000,-3.450,51.600,-22.200
36.80,0,4.240,2.163,-78.930,-826.000,-8220.000,934.000,-3.450,52.650,-22.950
36.89,0,4.238,2.098,-79.044,-826.000,-8224.000,910.000,-3.750,51.750,-23.550
37.00,0,4.211,2.058,-79.151,-742.000,-8154.000,936.000,-4.200,51.600,-21.750
37.11,0,4.234,2.013,-79.264,-844.000,-8168.000,988.000,-3.300,51.750,-21.300
37.22,0,4.261,1.970,-79.326,-856.000,-8190.000,974.000,-3.900,51.900,-23.250
37.33,0,4.271,1.987,-79.321,-854.000,-8218.000,914.000,-4.950,51.150,-22.950
37.42,0,4.253,2.011,-79.322,-786.000,-8218.000,924.000,-3.000,52.200,-23.550
37.53,0,4.248,2.013,-79.389,-846.000,-8246.000,942.000,-2.550,50.550,-23.100
37.64,0,4.222,1.985,-79.500,-848.000,-8230.000,994.000,-2.550,51.750,-23.550
37.73,0,4.178,1.975,-79.653,-816.000,-8240.000,956.000,-4.050,50.550,-22.800
37.84,0,4.178,1.947,-79.815,-824.000,-8224.000,916.000,-3.150,52.650,-22.200
37.95,0,4.158,1.910,-79.855,-854.000,-8170.000,934.000,-4.800,51.750,-22.350
38.06,0,4.116,1.888,-79.907,-824.000,-8198.000,934.000,-3.450,51.600,-22.500
38.16,0,4.101,1.906,-79.994,-792.000,-8204.000,976.000,-3.750,52.500,-22.050
38.27,0,4.080,1.937,-79.996,-792.000,-8176.000,992.000,-4.800,51.300,-22.350
38.38,0,4.023,1.951,-80.036,-910.000,-8264.000,980.000,-3.000,51.000,-22.800
38.47,0,3.971,1.940,-79.910,-844.000,-8238.000,978.000,-3.300,51.000,-23.850
38.58,0,3.951,1.906,-79.748,-740.000,-8254.000,918.000,-4.200,51.150,-21.450
38.69,0,3.926,1.878,-79.808,-762.000,-8190.000,976.000,-3.900,53.850,-24.000
38.80,0,3.944,1.847,-79.896,-770.000,-8200.000,980.000,-2.250,51.750,-22.800
38.89,0,3.992,1.836,-79.933,-780.000,-8176.000,998.000,-3.300,53.250,-20.550
39.01,0,3.978,1.863,-79.910,-712.000,-8196.000,1042.000,-3.300,52.500,-22.800
39.11,0,3.900,1.864,-79.909,-778.000,-8238.000,1028.000,-3.900,51.900,-22.500
39.22,0,3.828,1.817,-79.831,-792.000,-8232.000,992.000,-3.000,51.300,-23.100
39.33,0,3.777,1.780,-79.767,-772.000,-8244.000,954.000,-4.500,51.750,-23.850
39.42,0,3.768,1.784,-79.727,-764.000,-8212.000,948.000,-3.750,51.750,-23.100
39.53,0,3.838,1.812,-79.666,-726.000,-8232.000,934.000,-3.000,52.200,-22.350
39.64,0,3.924,1.889,-79.595,-784.000,-8212.000,880.000,-3.450,51.150,-22.500
39.73,0,3.972,1.977,-79.567,-732.000,-8166.000,910.000,-3.450,51.150,-23.250
39.85,0,3.961,2.083,-79.615,-802.000,-8190.000,896.000,-1.800,51.750,-21.600
39.96,0,3.909,2.184,-79.746,-858.000,-8186.000,920.000,-2.550,51.750,-23.550
40.05,0,3.891,2.297,-79.861,-816.000,-8212.000,840.000,-1.950,52.650,-21.750
40.17,0,3.913,2.409,-79.977,-816.000,-8246.000,876.000,-2.550,51.000,-22.800
40.26,0,3.974,2.516,-80.018,-796.000,-8226.000,828.000,-3.150,50.400,-22.500
40.37,0,4.071,2.633,-79.988,-842.000,-8216.000,792.000,-1.650,51.600,-21.750
40.48,0,4.198,2.770,-80.030,-848.000,-8192.000,794.000,-3.450,51.900,-22.500
40.59,0,4.292,2.850,-80.107,-848.000,-8248.000,790.000,-2.250,51.000,-20.550
40.68,0,4.338,2.949,-80.214,-884.000,-8190.000,766.000,-1.500,51.000,-21.600
40.80,0,4.370,3.089,-80.347,-902.000,-8218.000,822.000,-3.000,50.550,-21.300
40.90,0,4.384,3.170,-80.364,-864.000,-8266.000,788.000,-2.400,51.150,-20.400
41.00,0,4.377,3.210,-80.313,-780.000,-8234.000,772.000,-1.200,49.950,-21.750
41.12,0,4.357,3.259,-80.281,-772.000,-8154.000,810.000,-3.150,49.950,-22.950
41.21,0,4.397,3.302,-80.235,-802.000,-8220.000,868.000,-1.950,50.400,-22.200
41.32,0,4.512,3.276,-80.244,-834.000,-8194.000,914.000,-1.200,51.600,-21.150
41.43,0,4.570,3.192,-79.968,-798.000,-8318.000,870.000,-0.900,50.400,-22.950
41.52,0,4.516,3.138,-79.783,-956.000,-8382.000,768.000,-0.300,50.550,-23.550
41.63,0,4.348,2.915,-79.424,-1156.000,-8086.000,376.000,-1.800,50.550,-23.100
41.74,0,4.352,2.729,-79.238,-782.000,-8310.000,592.000,-0.150,48.900,-23.250
41.85,0,4.095,2.647,-79.618,-1032.000,-8212.000,606.000,-1.650,50.400,-21.750
41.94,0,3.891,2.759,-80.001,-966.000,-8190.000,606.000,-2.550,51.000,-22.350
42.07,0,3.845,2.703,-80.185,-932.000,-8080.000,746.000,-3.150,50.400,-22.500
42.16,0,4.094,2.415,-80.263,-936.000,-8496.000,668.000,-2.550,50.250,-23.100
42.27,0,4.417,2.088,-80.439,-794.000,-8132.000,954.000,-0.750,50.550,-23.850
42.38,0,4.571,1.700,-80.687,-844.000,-8134.000,980.000,0.000,49.500,-24.150
42.47,0,4.644,1.173,-80.822,-876.000,-8258.000,1200.000,-2.250,51.000,-24.900
42.58,0,4.355,0.467,-80.583,-610.000,-8210.000,1204.000,-1.650,50.400,-25.500
42.69,0,3.916,-0.239,-80.697,-668.000,-8220.000,1264.000,-2.550,51.750,-26.400
42.80,0,3.296,-0.911,-80.879,-646.000,-8128.000,1328.000,-3.750,51.300,-25.650
42.91,0,2.642,-1.616,-81.084,-338.000,-8090.000,1498.000,-5.250,52.500,-26.100
43.01,0,1.931,-2.282,-81.435,-160.000,-8106.000,1562.000,-5.250,52.200,-26.850
43.11,0,1.111,-2.706,-81.985,-114.000,-8132.000,1696.000,-6.750,52.200,-28.200
43.22,0,0.481,-2.755,-82.679,-212.000,-7886.000,1752.000,-7.800,51.750,-26.400
43.33,0,0.171,-2.659,-82.894,-114.000,-8020.000,1826.000,-6.300,52.950,-26.850
43.44,0,0.266,-2.451,-82.518,148.000,-8082.000,1776.000,-8.250,51.300,-27.150
43.53,0,0.348,-2.162,-81.948,144.000,-7996.000,1824.000,-5.400,53.100,-26.550
43.64,0,0.429,-1.820,-81.584,46.000,-8384.000,1646.000,-6.750,51.750,-25.350
43.73,0,0.554,-1.508,-81.112,94.000,-8008.000,1344.000,-6.750,51.000,-25.650
43.86,0,0.754,-1.320,-80.759,120.000,-8338.000,1168.000,-3.450,51.600,-25.200
43.96,0,0.877,-1.032,-80.785,-114.000,-8220.000,1040.000,-4.950,48.900,-25.500
44.08,0,0.839,-0.608,-80.872,-266.000,-8352.000,1074.000,-3.900,48.900,-25.200
44.17,0,0.734,-0.260,-80.974,-332.000,-8214.000,980.000,-5.400,50.850,-24.450
44.28,0,1.076,-0.043,-80.942,-762.000,-8530.000,842.000,-4.050,48.600,-25.650
44.39,0,1.221,0.090,-80.143,-514.000,-8130.000,482.000,-4.200,50.850,-26.250
44.48,0,1.209,0.135,-79.862,-516.000,-8356.000,580.000,-4.500,49.050,-26.400
44.59,0,1.132,0.444,-79.998,-552.000,-8214.000,502.000,-3.750,47.850,-26.100
44.71,0,1.250,0.784,-80.591,-506.000,-8170.000,650.000,-4.050,48.600,-26.400
44.80,0,1.410,0.834,-81.379,-600.000,-8212.000,720.000,-1.800,48.600,-25.350
44.91,0,1.632,0.661,-82.126,-414.000,-8622.000,824.000,-3.450,48.450,-26.250
45.02,0,1.692,0.372,-82.886,-720.000,-7952.000,924.000,-2.700,48.450,-26.550
45.13,0,1.568,0.143,-82.846,-402.000,-8412.000,1000.000,-3.450,48.900,-25.200
45.22,0,1.188,-0.306,-82.967,-304.000,-8170.000,1094.000,-2.700,48.000,-26.550
45.33,0,0.609,-0.995,-82.745,16.000,-8414.000,1314.000,-3.450,50.400,-27.750
45.44,0,-0.082,-1.577,-82.797,212.000,-8024.000,1570.000,-4.950,47.250,-27.000
45.53,0,-0.439,-2.123,-83.532,-12.000,-8142.000,1808.000,-7.050,49.800,-27.900
45.64,0,-0.485,-2.669,-83.908,106.000,-7964.000,1812.000,-5.550,49.500,-27.900
45.75,0,-0.173,-3.089,-83.983,164.000,-7938.000,1850.000,-5.400,49.200,-28.800
45.86,0,0.071,-3.158,-84.005,56.000,-8186.000,1768.000,-5.700,48.450,-28.500
45.96,0,0.197,-2.994,-83.917,186.000,-8076.000,1498.000,-6.000,49.500,-30.150
46.06,0,0.358,-2.906,-84.037,-42.000,-8208.000,1342.000,-5.250,48.300,-28.950
46.17,0,0.427,-2.701,-84.049,8.000,-8204.000,1402.000,-5.400,49.200,-28.500
46.27,0,0.429,-2.461,-84.045,-156.000,-8214.000,1322.000,-3.900,47.700,-29.550
46.38,0,0.410,-2.131,-83.823,-70.000,-8142.000,1250.000,-3.900,48.450,-29.850
46.49,0,0.530,-1.797,-83.764,-102.000,-8220.000,1230.000,-5.550,47.850,-28.200
46.59,0,0.747,-1.289,-83.805,-130.000,-8176.000,1138.000,-4.800,46.350,-28.650
46.71,0,0.967,-0.720,-83.952,-262.000,-8230.000,1020.000,-3.300,45.900,-28.200
46.80,0,1.174,-0.169,-84.284,-356.000,-8244.000,954.000,-2.700,46.500,-28.050
46.90,0,1.345,0.282,-84.539,-446.000,-8246.000,902.000,-3.150,47.700,-27.000
47.01,0,1.455,0.651,-84.587,-342.000,-8246.000,846.000,-4.200,46.500,-27.750
47.13,0,1.561,0.893,-84.700,-378.000,-8232.000,922.000,-4.050,45.900,-26.850
47.22,0,1.696,1.139,-84.846,-366.000,-8302.000,882.000,-4.650,46.950,-27.300
47.33,0,1.852,1.377,-85.077,-414.000,-8244.000,914.000,-4.650,45.300,-28.050
47.44,0,2.145,1.585,-85.317,-560.000,-8292.000,884.000,-4.050,46.350,-26.850
47.53,0,2.515,1.814,-85.488,-522.000,-8124.000,930.000,-2.250,45.600,-27.450
47.65,0,2.859,2.075,-85.720,-524.000,-8218.000,892.000,-1.950,45.750,-28.050
47.75,0,3.178,2.259,-85.997,-736.000,-8308.000,920.000,-2.400,45.300,-27.000
47.85,0,3.355,2.336,-86.202,-778.000,-8106.000,796.000,-0.900,46.200,-27.750
47.96,0,3.397,2.502,-86.292,-690.000,-8246.000,806.000,-1.950,45.300,-25.800
48.07,0,3.404,2.694,-86.372,-694.000,-8404.000,718.000,-1.050,45.150,-27.150
48.18,0,3.437,2.827,-86.658,-736.000,-8236.000,686.000,-2.250,45.600,-26.850
48.27,0,3.461,3.016,-87.063,-798.000,-8174.000,610.000,-2.400,43.800,-27.000
48.38,0,3.535,3.362,-87.532,-874.000,-8236.000,562.000,-1.500,43.950,-27.450
48.49,0,3.658,3.798,-87.935,-862.000,-8272.000,592.000,-1.200,43.800,-27.000
48.60,0,3.743,4.071,-88.241,-880.000,-8314.000,674.000,-0.750,44.400,-25.650
48.71,0,3.784,4.065,-88.353,-834.000,-8236.000,700.000,-1.200,44.550,-26.250
48.80,0,3.717,3.953,-88.422,-844.000,-8240.000,592.000,-1.800,43.950,-25.650
48.91,0,3.570,4.011,-88.500,-754.000,-8226.000,584.000,0.000,43.950,-28.200
49.02,0,3.515,4.100,-88.650,-670.000,-8238.000,656.000,-0.900,45.000,-26.250
49.11,0,3.452,4.218,-88.817,-726.000,-8272.000,632.000,-0.750,43.950,-27.450
49.23,0,3.392,4.323,-89.008,-658.000,-8334.000,660.000,-0.450,44.250,-27.000
49.33,0,3.398,4.381,-89.125,-832.000,-8310.000,604.000,-1.950,43.800,-27.000
49.43,0,3.487,4.379,-89.185,-818.000,-8248.000,580.000,-0.300,43.950,-26.850
49.55,0,3.570,4.363,-89.167,-800.000,-8276.000,514.000,-2.250,44.400,-26.850
49.64,0,3.631,4.371,-89.236,-866.000,-8192.000,514.000,-1.500,43.950,-26.400
49.75,0,3.632,4.365,-89.373,-760.000,-8264.000,474.000,-0.300,43.650,-26.100
49.86,0,3.586,4.360,-89.590,-806.000,-8236.000,594.000,-1.200,44.550,-26.550
49.96,0,3.544,4.431,-89.818,-752.000,-8300.000,650.000,-0.450,44.550,-26.250
50.07,0,3.543,4.459,-89.950,-772.000,-8276.000,618.000,-0.300,43.650,-25.650
50.17,0,3.594,4.433,-90.069,-870.000,-8146.000,532.000,-0.900,45.000,-26.250
50.27,0,3.656,4.452,-90.118,-864.000,-8210.000,530.000,-0.450,44.550,-25.500
50.38,0,3.711,4.538,-90.198,-814.000,-8266.000,540.000,0.000,44.400,-27.150
50.49,0,3.722,4.638,-90.234,-790.000,-8274.000,614.000,-0.750,45.150,-26.400
50.60,0,3.749,4.649,-90.314,-884.000,-8282.000,596.000,-0.750,45.150,-25.650
50.70,0,3.733,4.644,-90.407,-942.000,-8222.000,532.000,-0.900,44.250,-27.000
50.81,0,3.731,4.638,-90.460,-914.000,-8258.000,510.000,-0.900,43.800,-25.200
50.91,0,3.743,4.706,-90.428,-888.000,-8266.000,514.000,-1.050,44.850,-24.900
51.02,0,3.769,4.801,-90.539,-842.000,-8244.000,546.000,-0.300,44.400,-24.150
51.11,0,3.790,4.866,-90.712,-854.000,-8240.000,500.000,-0.300,44.850,-26.400
51.22,0,3.846,4.931,-90.890,-864.000,-8172.000,490.000,-0.900,44.550,-25.500
51.33,0,3.898,5.058,-91.096,-878.000,-8206.000,474.000,0.750,43.950,-26.400
51.44,0,3.946,5.209,-91.311,-962.000,-8250.000,482.000,0.150,44.250,-25.200
51.55,0,3.976,5.373,-91.450,-1014.000,-8280.000,486.000,0.000,44.850,-26.100
51.66,0,4.035,5.491,-91.579,-1002.000,-8268.000,446.000,1.050,45.150,-25.650
51.75,0,4.102,5.570,-91.599,-838.000,-8246.000,444.000,-0.150,43.500,-25.200
51.86,0,4.204,5.584,-91.757,-982.000,-8242.000,470.000,0.150,44.250,-25.800
51.95,0,4.306,5.606,-91.830,-958.000,-8214.000,466.000,0.150,44.250,-25.800
52.07,0,4.376,5.580,-91.852,-922.000,-8188.000,460.000,-0.900,44.250,-24.750
52.18,0,4.486,5.639,-91.879,-1054.000,-8230.000,416.000,0.450,42.600,-25.500
52.27,0,4.592,5.761,-91.848,-1102.000,-8270.000,378.000,0.450,43.500,-26.550
52.39,0,4.710,5.801,-91.833,-1042.000,-8272.000,406.000,1.050,43.950,-25.350
52.50,0,4.855,5.647,-91.956,-1114.000,-8162.000,382.000,0.150,42.300,-26.250
52.59,0,5.001,5.526,-92.071,-1160.000,-8252.000,414.000,-0.150,43.050,-24.750
52.70,0,5.040,5.480,-92.234,-1174.000,-8234.000,408.000,1.950,43.500,-26.550
52.81,0,4.998,5.494,-92.368,-1180.000,-8208.000,418.000,0.150,43.500,-26.550
53.17,0,4.983,5.488,-92.420,-1106.000,-8284.000,452.000,0.150,43.800,-27.300
53.19,0,4.841,5.459,-92.542,-1012.000,-8178.000,468.000,1.500,43.650,-27.450
53.21,0,4.746,5.462,-92.739,-1026.000,-8184.000,536.000,0.150,43.500,-25.800
53.23,0,4.798,5.425,-92.746,-1012.000,-8216.000,684.000,0.000,44.400,-26.400
53.33,0,5.065,5.355,-92.625,-1160.000,-8270.000,628.000,0.150,44.250,-26.550
53.45,0,5.277,5.238,-92.399,-1164.000,-8206.000,664.000,1.500,42.900,-26.100
53.54,0,5.443,5.100,-92.087,-1230.000,-8140.000,678.000,1.800,44.400,-26.100
53.65,0,5.474,5.070,-91.621,-1136.000,-8204.000,540.000,1.200,45.000,-27.750
53.76,0,5.472,5.125,-91.179,-1152.000,-8172.000,516.000,0.450,43.500,-26.550
53.87,0,5.467,5.162,-90.891,-1138.000,-8154.000,496.000,0.450,44.550,-27.300
53.96,0,5.452,5.202,-90.808,-1070.000,-8172.000,504.000,0.150,44.550,-27.300
54.07,0,5.408,5.336,-90.902,-1078.000,-8166.000,518.000,1.050,43.200,-26.400
54.17,0,5.353,5.502,-91.065,-1104.000,-8190.000,522.000,0.750,43.650,-26.850
54.27,0,5.244,5.777,-91.069,-1150.000,-8216.000,482.000,1.500,42.900,-24.900
54.40,0,5.094,6.068,-90.926,-1136.000,-8164.000,396.000,-0.300,43.650,-26.100
54.50,0,5.100,6.303,-90.763,-1026.000,-8226.000,298.000,1.500,42.900,-26.400
54.59,0,5.141,6.449,-90.720,-948.000,-8306.000,216.000,0.000,43.200,-24.600
54.71,0,5.264,6.539,-90.995,-1026.000,-8246.000,226.000,0.300,43.200,-27.150
54.82,0,5.305,6.740,-91.155,-996.000,-8232.000,194.000,0.450,42.600,-25.500
54.91,0,5.277,6.922,-91.501,-1154.000,-8272.000,312.000,0.150,44.250,-26.250
55.02,0,5.267,7.023,-91.694,-1262.000,-8244.000,242.000,0.450,43.500,-26.250
55.13,0,5.285,7.092,-91.795,-1194.000,-8208.000,228.000,0.750,42.450,-26.100
55.24,0,5.402,7.140,-91.681,-1240.000,-8166.000,204.000,-0.150,43.050,-26.550
55.34,0,5.431,7.226,-91.500,-1108.000,-8214.000,234.000,-0.150,43.800,-24.750
55.44,0,5.451,7.369,-91.445,-1186.000,-8250.000,74.000,1.500,43.200,-25.650
55.55,0,5.499,7.450,-91.588,-1168.000,-8308.000,186.000,1.050,43.950,-25.350
55.66,0,5.518,7.429,-91.926,-1250.000,-8220.000,136.000,1.050,42.900,-26.850
55.75,0,5.487,7.307,-92.289,-1244.000,-8260.000,206.000,1.050,43.650,-24.900
55.87,0,5.366,7.181,-92.618,-1192.000,-8240.000,242.000,0.450,43.050,-25.500
55.97,0,5.163,6.964,-92.991,-1362.000,-8252.000,352.000,1.050,44.400,-26.400
56.07,0,4.894,6.691,-93.036,-1170.000,-8180.000,324.000,0.150,44.550,-25.200
56.17,0,4.639,6.390,-93.017,-976.000,-8146.000,290.000,2.250,43.200,-26.400
56.28,0,4.386,6.131,-93.104,-924.000,-8278.000,336.000,0.750,44.400,-26.850
56.39,0,4.072,5.957,-93.384,-860.000,-8248.000,336.000,-0.300,43.200,-25.650
56.50,0,3.800,5.785,-94.043,-902.000,-8210.000,426.000,0.150,43.800,-26.550
56.61,0,3.418,5.574,-94.842,-818.000,-8266.000,520.000,-1.200,43.800,-25.800
56.70,0,2.972,5.291,-95.700,-822.000,-8228.000,476.000,0.450,43.800,-25.200
56.81,0,2.483,5.059,-96.612,-804.000,-8244.000,468.000,-1.800,44.400,-26.850
56.92,0,2.103,4.983,-97.569,-822.000,-8168.000,556.000,-1.650,44.550,-25.500
57.03,0,1.877,5.033,-98.424,-700.000,-8290.000,576.000,-1.500,44.850,-25.350
57.13,0,1.712,5.068,-99.300,-600.000,-8260.000,512.000,-3.000,44.850,-24.900
57.24,0,1.503,4.959,-100.234,-830.000,-8268.000,568.000,-3.150,44.550,-25.500
57.35,0,1.140,4.943,-100.942,-688.000,-8284.000,382.000,-3.750,44.400,-25.350
57.45,0,0.874,4.923,-101.666,-564.000,-8268.000,340.000,-4.650,45.000,-25.200
57.55,0,0.590,4.936,-102.268,-614.000,-8262.000,418.000,-4.500,43.650,-26.400
57.66,0,0.290,4.946,-102.824,-592.000,-8308.000,418.000,-3.150,44.550,-24.450
57.76,0,0.025,4.830,-103.409,-626.000,-8246.000,434.000,-3.000,43.950,-23.100
57.88,0,-0.243,4.801,-103.731,-504.000,-8266.000,418.000,-3.450,43.500,-23.250
57.97,0,-0.491,4.950,-103.797,-398.000,-8304.000,360.000,-3.450,45.000,-24.750
58.08,0,-0.770,5.075,-103.587,-364.000,-8314.000,412.000,-4.800,43.950,-24.150
58.19,0,-1.171,5.215,-103.352,-296.000,-8346.000,244.000,-4.800,42.900,-24.600
58.29,0,-1.437,5.108,-103.308,-552.000,-8244.000,160.000,-4.800,43.650,-23.850
58.39,0,-1.460,5.108,-103.116,-298.000,-8356.000,82.000,-5.250,45.600,-24.150
58.50,0,-1.449,5.174,-102.872,-310.000,-8304.000,184.000,-5.400,43.500,-24.000
58.62,0,-1.411,5.320,-102.620,-394.000,-8362.000,152.000,-4.950,45.000,-24.000
58.72,0,-1.373,5.416,-102.421,-458.000,-8310.000,204.000,-5.400,45.300,-22.950
58.81,0,-1.276,5.553,-102.072,-354.000,-8282.000,210.000,-6.150,44.550,-23.700
58.92,0,-1.185,5.611,-101.675,-344.000,-8222.000,198.000,-5.700,42.600,-23.700
59.03,0,-1.155,5.630,-101.401,-230.000,-8230.000,258.000,-4.500,42.900,-24.150
59.14,0,-1.096,5.701,-101.163,-226.000,-8272.000,244.000,-3.450,43.500,-23.250
59.25,0,-1.072,5.748,-101.015,-330.000,-8290.000,184.000,-5.250,43.650,-23.550
59.34,0,-1.087,5.747,-100.960,-454.000,-8288.000,238.000,-4.050,43.650,-23.550
59.45,0,-1.003,5.820,-100.911,-370.000,-8326.000,100.000,-4.500,43.950,-22.800
59.56,0,-0.880,5.914,-100.711,-320.000,-8300.000,138.000,-4.650,43.050,-24.000
59.65,0,-0.689,6.007,-100.432,-436.000,-8348.000,212.000,-3.900,42.300,-24.450
59.76,0,-0.614,5.887,-100.144,-404.000,-8324.000,184.000,-3.300,43.650,-23.550
59.85,0,-0.552,5.826,-99.843,-406.000,-8300.000,228.000,-3.750,45.150,-24.150
59.97,0,-0.390,5.888,-99.545,-284.000,-8296.000,274.000,-3.150,44.250,-22.950
60.07,0,-0.253,5.817,-99.217,-392.000,-8324.000,264.000,-4.050,43.950,-24.150
60.18,0,-0.080,5.616,-98.989,-452.000,-8340.000,268.000,-3.750,44.400,-24.600
60.29,0,0.116,5.390,-98.692,-546.000,-8356.000,266.000,-3.450,44.250,-22.500
60.40,0,0.287,5.172,-98.438,-710.000,-8200.000,186.000,-2.700,44.250,-24.000
60.51,0,0.592,4.882,-98.046,-786.000,-8362.000,150.000,-4.050,43.650,-24.900
60.61,0,1.034,4.579,-97.464,-604.000,-8296.000,274.000,-3.450,45.000,-24.750
60.72,0,1.465,4.242,-97.068,-706.000,-8130.000,576.000,-1.200,45.300,-25.500
60.81,0,1.807,4.067,-96.754,-550.000,-8276.000,684.000,-1.950,44.550,-25.200
60.92,0,2.072,4.133,-96.522,-686.000,-8288.000,574.000,-1.050,45.150,-25.650
61.02,0,2.284,4.345,-96.009,-812.000,-8208.000,636.000,-1.800,45.600,-24.600
61.13,0,2.575,4.426,-95.292,-910.000,-8370.000,654.000,-2.400,43.050,-24.750
61.24,0,3.035,4.465,-94.536,-776.000,-8216.000,556.000,-0.300,44.400,-25.650
61.34,0,3.513,4.527,-93.824,-812.000,-8204.000,470.000,-0.750,42.900,-24.900
61.46,0,3.841,4.609,-93.265,-1074.000,-8246.000,514.000,0.000,42.900,-25.350
61.61,0,4.094,4.496,-92.881,-1002.000,-8294.000,550.000,-0.150,43.800,-27.000
61.84,0,4.388,4.308,-92.557,-992.000,-8184.000,490.000,1.050,44.850,-26.400
61.87,0,4.590,4.109,-92.379,-1038.000,-8274.000,534.000,-0.150,44.550,-26.250
61.90,0,4.799,4.079,-92.300,-950.000,-8196.000,658.000,-0.150,43.800,-28.050
61.98,0,4.909,4.043,-92.370,-1120.000,-8192.000,564.000,0.150,44.250,-28.050
62.06,0,4.926,4.142,-92.667,-1004.000,-8304.000,574.000,-0.450,44.550,-26.550
62.19,0,4.726,4.239,-92.925,-950.000,-8162.000,546.000,-0.750,43.200,-26.100
62.30,0,4.653,4.260,-93.142,-938.000,-8204.000,562.000,0.300,43.650,-25.350
62.40,0,4.654,4.170,-93.373,-990.000,-8142.000,720.000,0.000,43.950,-26.850
62.51,0,4.519,4.115,-93.342,-892.000,-8334.000,702.000,0.450,44.550,-27.300
62.61,0,4.496,4.109,-93.398,-948.000,-8200.000,708.000,0.900,44.550,-25.800
62.70,0,4.490,4.096,-93.381,-908.000,-8254.000,624.000,0.450,42.600,-26.550
62.81,0,4.481,4.146,-93.356,-912.000,-8128.000,596.000,-1.200,43.800,-26.250
62.92,0,4.450,4.281,-93.213,-916.000,-8238.000,716.000,0.300,44.400,-27.150
63.02,0,4.423,4.299,-93.071,-888.000,-8298.000,642.000,-0.450,45.000,-26.250
63.18,0,4.306,4.458,-93.013,-1052.000,-8240.000,612.000,-0.300,44.400,-25.650
63.32,0,4.307,4.441,-92.870,-886.000,-8328.000,562.000,0.150,45.000,-25.500
63.35,0,4.451,4.253,-92.878,-1012.000,-8258.000,604.000,0.300,45.150,-26.400
63.53,0,4.574,4.097,-92.741,-898.000,-8316.000,602.000,0.750,44.850,-27.900
63.60,0,4.609,4.155,-92.908,-924.000,-8132.000,582.000,0.000,43.650,-26.100
63.65,0,4.445,4.519,-92.959,-838.000,-8358.000,694.000,-0.450,43.800,-26.250
63.77,0,4.279,4.465,-93.205,-880.000,-8194.000,656.000,-0.300,44.850,-26.400
63.88,0,4.306,4.120,-93.314,-906.000,-8264.000,674.000,-1.200,44.550,-27.300
63.97,0,4.354,4.049,-93.357,-866.000,-8146.000,678.000,0.450,43.800,-25.800
64.22,0,4.451,4.064,-93.357,-890.000,-8208.000,664.000,-0.300,44.400,-26.100
64.23,0,4.298,3.981,-93.387,-1060.000,-8190.000,576.000,-0.150,44.250,-27.000
64.28,0,4.255,3.995,-93.482,-962.000,-8190.000,644.000,-0.450,45.000,-27.300
64.39,0,4.220,4.051,-93.541,-1050.000,-8264.000,716.000,-0.150,44.550,-27.300
64.51,0,4.322,4.049,-93.516,-808.000,-8198.000,694.000,0.300,44.850,-26.400
64.61,0,4.303,4.020,-93.651,-1044.000,-8162.000,612.000,-0.900,43.500,-26.550
64.71,0,4.278,4.042,-93.726,-942.000,-8208.000,580.000,-0.450,43.800,-25.500
64.81,0,4.269,4.050,-93.876,-940.000,-8206.000,562.000,0.450,44.550,-27.750
64.92,0,4.280,4.024,-94.004,-1132.000,-8194.000,546.000,0.450,44.550,-25.800
65.03,0,4.325,4.091,-94.058,-940.000,-8268.000,672.000,-0.150,43.800,-27.300
65.14,0,4.349,4.135,-94.077,-842.000,-8310.000,650.000,-0.150,43.800,-26.550
65.24,0,4.409,4.086,-94.175,-928.000,-8186.000,670.000,-1.050,44.400,-26.850
65.35,0,4.407,4.100,-94.254,-876.000,-8204.000,632.000,-0.150,44.250,-26.250
65.46,0,4.363,4.177,-94.254,-968.000,-8236.000,742.000,-1.650,43.500,-27.000
65.55,0,4.526,4.290,-94.133,-908.000,-8080.000,644.000,0.450,43.800,-25.500
65.66,0,4.578,4.588,-93.931,-752.000,-8356.000,532.000,0.750,43.950,-26.850
65.77,0,4.654,4.660,-93.930,-816.000,-8304.000,626.000,-0.150,43.800,-27.000
65.87,0,4.611,4.709,-94.111,-1018.000,-8074.000,592.000,0.750,45.150,-27.150
65.98,0,4.643,4.610,-94.167,-1056.000,-8176.000,674.000,-0.300,44.400,-27.450
66.09,0,4.962,4.484,-94.003,-1082.000,-8116.000,694.000,1.050,44.850,-26.100
66.20,0,5.183,4.539,-93.759,-948.000,-8344.000,652.000,1.500,43.650,-26.850
66.32,0,5.301,4.442,-93.834,-876.000,-8068.000,654.000,0.450,43.500,-27.300
