time,IMU#,roll,pitch,yaw,accelx,accely,accelz,compassx,compassy,compassz
0.12,0,-58.902,-40.374,106.163,-0.789,-8.045,0.008,4.650,41.550,-31.350
0.22,0,-58.994,-40.234,106.573,-0.525,-8.059,-0.037,5.400,41.550,-31.350
0.33,0,-59.121,-40.040,106.037,-0.791,-8.000,0.078,5.700,43.050,-29.850
0.43,0,-59.010,-40.181,105.348,-0.871,-8.039,0.105,5.400,41.100,-31.350
0.54,0,-58.789,-40.390,105.129,-0.881,-8.152,-0.002,4.500,42.150,-30.900
0.64,0,-58.897,-40.453,105.732,-0.520,-8.262,0.029,4.650,42.300,-30.600
0.75,0,-59.420,-40.330,106.265,-0.543,-7.998,-0.049,5.400,41.550,-30.600
0.85,0,-59.873,-40.246,106.077,-0.701,-8.088,-0.043,4.800,42.900,-30.450
0.96,0,-60.212,-40.200,105.547,-0.879,-8.062,-0.154,5.250,40.200,-31.200
1.06,0,-60.467,-40.292,104.839,-1.006,-8.074,-0.061,5.250,40.500,-30.150
1.17,0,-60.466,-40.371,104.348,-0.990,-8.129,-0.113,7.050,40.500,-30.450
1.28,0,-60.371,-40.483,103.972,-0.959,-8.080,-0.070,5.400,40.350,-29.850
1.37,0,-60.312,-40.483,103.881,-1.033,-8.129,-0.070,6.900,40.350,-30.600
1.49,0,-60.216,-40.418,104.038,-0.939,-7.947,-0.055,6.900,41.550,-29.250
1.59,0,-60.267,-40.476,104.758,-0.609,-8.123,-0.125,6.300,41.250,-29.700
1.70,0,-60.330,-40.462,104.877,-0.859,-8.088,-0.045,5.550,40.950,-30.450
1.81,0,-60.280,-40.538,104.821,-0.744,-8.070,-0.084,5.700,41.550,-30.300
1.90,0,-60.193,-40.605,104.425,-0.842,-8.039,-0.078,6.750,41.700,-30.450
2.01,0,-60.088,-40.628,103.993,-0.768,-7.973,-0.066,5.250,41.700,-28.950
2.12,0,-59.920,-40.629,103.515,-0.957,-8.049,-0.049,6.300,40.950,-28.950
2.22,0,-59.780,-40.669,103.471,-0.783,-8.062,-0.111,6.750,40.950,-30.150
2.33,0,-59.836,-40.630,103.532,-0.830,-8.059,0.045,6.750,40.200,-29.700
2.44,0,-59.918,-40.612,103.670,-0.799,-8.076,-0.123,6.150,39.600,-28.500
2.54,0,-60.011,-40.609,103.706,-0.875,-8.102,-0.023,5.550,41.250,-29.400
2.64,0,-60.033,-40.608,103.730,-0.793,-8.047,-0.061,6.150,41.100,-29.850
2.75,0,-59.932,-40.601,103.697,-0.828,-8.031,-0.088,6.150,43.050,-29.550
2.85,0,-59.867,-40.621,103.813,-0.822,-8.121,-0.131,6.000,40.200,-30.450
2.96,0,-59.830,-40.622,103.809,-0.852,-8.057,-0.102,5.550,41.700,-29.700
3.07,0,-59.857,-40.654,103.724,-0.818,-8.127,-0.033,6.300,41.700,-30.150
3.18,0,-59.926,-40.664,103.764,-0.785,-8.064,-0.027,5.550,42.150,-30.150
3.27,0,-59.907,-40.666,103.846,-0.908,-8.041,-0.043,6.150,42.600,-30.300
3.38,0,-59.655,-40.713,103.976,-1.123,-7.994,0.037,6.000,41.700,-30.150
3.48,0,-59.257,-40.835,105.028,-0.787,-8.123,-0.133,4.800,41.250,-30.450
3.58,0,-59.291,-40.800,106.338,-0.088,-8.215,-0.197,4.650,40.650,-29.550
3.71,0,-59.529,-40.569,105.882,-0.773,-8.031,-0.033,5.400,40.350,-29.250
3.81,0,-59.420,-40.686,105.063,-0.725,-8.111,-0.025,6.000,40.200,-29.700
3.91,0,-59.494,-40.661,104.455,-1.010,-8.064,0.053,4.800,40.200,-29.700
4.02,0,-59.602,-40.687,104.739,-0.793,-8.111,-0.033,6.300,42.450,-28.950
4.11,0,-59.650,-40.732,104.938,-0.795,-8.141,-0.027,6.150,41.550,-29.850
4.22,0,-59.629,-40.763,105.166,-0.795,-8.008,-0.090,5.550,41.250,-30.450
4.33,0,-59.570,-40.819,105.137,-0.752,-8.070,-0.096,5.700,41.100,-30.600
4.44,0,-59.571,-40.775,104.986,-0.797,-8.102,-0.047,5.250,41.250,-28.200
4.55,0,-59.631,-40.721,104.737,-0.746,-8.049,0.000,6.150,41.550,-29.250
4.64,0,-59.536,-40.647,104.461,-1.326,-7.924,0.070,5.400,40.650,-29.850
4.75,0,-59.296,-40.854,104.764,-0.563,-8.205,-0.182,4.950,39.900,-31.050
4.86,0,-59.077,-40.885,104.201,-0.943,-8.066,-0.047,6.000,41.250,-29.700
4.96,0,-58.649,-41.008,104.034,-0.730,-8.154,-0.092,5.700,41.100,-28.800
5.07,0,-58.177,-41.006,103.879,-0.455,-8.145,-0.152,6.900,41.550,-29.850
5.16,0,-57.832,-40.874,103.297,-0.623,-8.002,-0.047,5.250,43.200,-30.450
5.27,0,-57.539,-40.479,102.872,-0.461,-8.164,0.123,4.950,41.100,-30.300
5.39,0,-56.979,-39.577,102.543,-0.691,-7.924,0.275,4.800,42.450,-31.500
5.49,0,-56.515,-38.533,102.246,-0.469,-8.191,0.410,3.900,40.650,-32.850
5.59,0,-55.715,-37.041,100.900,-0.641,-8.070,0.629,4.800,42.900,-32.700
5.70,0,-54.984,-35.317,99.594,-0.525,-8.092,0.797,3.450,41.100,-33.900
5.81,0,-54.409,-33.224,98.141,-0.389,-8.033,1.123,4.650,40.650,-35.100
5.92,0,-54.055,-30.911,95.762,-0.443,-8.074,1.510,5.400,41.100,-37.950
6.01,0,-53.964,-28.423,93.568,-0.748,-7.938,1.771,6.150,39.600,-36.900
6.12,0,-53.766,-25.805,91.766,-0.723,-7.801,2.094,8.250,39.000,-38.550
6.23,0,-54.321,-22.907,89.912,-1.029,-7.635,2.412,7.650,37.200,-40.200
6.34,0,-54.853,-19.965,88.564,-1.123,-7.656,2.904,9.000,36.300,-42.600
6.44,0,-55.686,-16.925,87.356,-1.428,-7.400,3.152,10.950,34.950,-43.950
6.55,0,-56.686,-14.094,86.460,-1.549,-7.203,3.361,9.750,32.400,-44.850
6.65,0,-58.356,-11.492,84.938,-2.045,-6.955,3.666,12.450,31.500,-45.750
6.76,0,-59.328,-8.865,84.629,-2.059,-6.777,3.840,14.550,30.450,-47.100
6.86,0,-60.590,-6.388,83.908,-2.322,-6.457,4.141,16.200,28.350,-48.750
6.97,0,-62.004,-3.949,83.142,-2.605,-6.385,4.336,18.900,26.400,-49.800
7.07,0,-63.617,-1.409,82.237,-3.016,-6.092,4.596,18.750,24.300,-48.450
7.18,0,-65.371,1.312,81.499,-3.332,-5.824,4.734,19.500,21.600,-47.700
7.28,0,-66.944,4.039,81.169,-3.453,-5.354,4.840,21.000,19.200,-50.700
7.39,0,-68.216,6.757,80.973,-3.650,-5.229,5.104,23.400,17.850,-50.100
7.50,0,-69.691,9.687,80.511,-4.055,-4.779,5.359,23.250,15.450,-51.450
7.59,0,-71.248,12.945,80.239,-3.799,-4.396,5.451,24.300,11.850,-52.200
7.71,0,-72.827,16.126,79.790,-4.025,-3.916,5.574,25.500,8.850,-52.200
7.80,0,-75.172,19.033,78.871,-4.316,-3.449,5.689,25.650,6.750,-52.350
7.91,0,-78.101,21.632,77.315,-4.879,-3.033,5.939,28.050,3.000,-51.450
8.02,0,-80.405,24.704,76.653,-4.990,-2.562,5.713,28.950,-0.150,-52.350
8.13,0,-83.162,27.553,75.822,-5.307,-2.062,5.639,29.400,-3.150,-50.850
8.22,0,-85.538,30.285,75.348,-5.441,-1.607,5.631,30.000,-5.700,-50.400
8.33,0,-88.566,32.660,74.675,-5.525,-1.197,5.551,30.300,-8.100,-49.950
8.44,0,-91.980,34.801,73.659,-5.721,-0.723,5.596,31.650,-11.400,-48.300
8.55,0,-94.562,37.210,72.741,-5.652,-0.258,5.512,30.900,-15.150,-48.750
8.66,0,-96.787,39.487,71.677,-5.682,0.139,5.684,30.150,-17.850,-49.050
8.75,0,-97.985,41.793,71.145,-5.523,0.533,5.471,29.700,-19.800,-49.350
8.86,0,-99.136,43.554,70.812,-5.510,0.891,5.424,29.250,-21.150,-46.650
8.97,0,-99.905,44.852,70.885,-5.457,1.119,5.457,29.400,-22.950,-47.250
9.07,0,-100.982,45.464,70.868,-5.492,1.229,5.520,27.450,-24.450,-47.550
9.17,0,-101.564,45.737,71.193,-5.373,1.189,5.535,29.700,-26.100,-48.300
9.29,0,-101.799,45.631,71.705,-5.502,1.176,5.680,27.900,-24.450,-48.300
9.40,0,-101.937,45.577,72.186,-5.523,1.146,5.557,29.550,-25.050,-47.400
9.50,0,-101.843,45.626,72.657,-5.590,1.170,5.652,29.250,-25.500,-47.700
9.60,0,-101.997,45.530,73.019,-5.613,1.170,5.508,27.750,-24.300,-47.700
9.71,0,-102.080,45.463,73.334,-5.537,1.154,5.523,27.150,-25.200,-46.800
9.81,0,-101.927,45.303,73.794,-5.553,1.135,5.535,28.800,-25.050,-48.150
9.91,0,-101.654,45.113,74.280,-5.566,1.076,5.533,27.300,-22.800,-47.400
10.01,0,-101.352,44.798,74.730,-5.521,1.018,5.504,28.650,-23.700,-46.800
10.14,0,-101.063,44.298,75.387,-5.348,1.018,5.445,27.450,-24.150,-46.800
10.23,0,-100.550,43.433,76.220,-5.551,0.955,5.434,30.300,-22.800,-47.100
10.34,0,-100.347,42.227,76.803,-5.623,0.725,5.367,28.500,-21.600,-48.450
10.45,0,-100.748,40.291,76.922,-6.205,0.459,5.412,30.150,-19.800,-46.050
10.55,0,-99.324,38.889,77.984,-5.840,0.229,5.316,30.000,-18.900,-45.900
10.65,0,-98.228,37.185,78.659,-5.920,0.035,5.270,31.650,-17.550,-45.750
10.76,0,-96.622,35.381,79.620,-5.803,-0.215,5.129,31.050,-16.200,-45.900
10.87,0,-95.365,32.713,80.755,-6.055,-0.678,5.092,33.150,-13.650,-46.050
10.97,0,-92.553,29.990,82.787,-5.799,-1.230,5.182,32.550,-10.350,-45.900
11.08,0,-91.018,26.972,83.875,-5.947,-1.732,5.266,32.700,-7.500,-45.750
11.19,0,-89.109,24.376,85.226,-5.789,-2.123,5.164,32.400,-3.600,-45.750
11.28,0,-87.708,21.684,86.229,-5.787,-2.539,5.047,32.250,-1.050,-46.650
11.39,0,-86.648,18.962,87.239,-5.635,-2.924,4.809,32.700,0.450,-45.000
11.50,0,-85.871,15.923,88.216,-5.307,-3.355,4.695,31.950,2.850,-45.300
11.60,0,-85.861,12.306,88.224,-5.889,-3.795,4.375,31.950,6.300,-41.700
11.71,0,-83.584,9.192,89.925,-5.486,-3.889,4.436,30.900,9.000,-42.000
11.81,0,-79.907,6.067,92.907,-5.088,-4.705,4.084,30.000,11.850,-43.350
11.92,0,-76.180,2.695,95.361,-4.486,-5.164,4.387,27.300,16.200,-43.650
12.03,0,-73.081,-0.643,97.795,-4.021,-5.893,3.963,25.650,18.300,-44.250
12.12,0,-71.541,-4.300,99.049,-4.029,-6.254,3.691,24.900,21.750,-43.200
12.23,0,-69.817,-7.628,100.543,-3.461,-6.463,3.600,22.650,26.100,-42.750
12.33,0,-67.888,-10.429,101.989,-3.035,-6.736,3.488,21.150,28.350,-43.950
12.44,0,-66.361,-13.147,103.460,-2.852,-6.643,3.074,19.800,28.200,-41.850
12.56,0,-65.610,-15.985,105.092,-2.732,-7.230,2.762,16.950,29.850,-40.650
12.65,0,-64.554,-19.010,106.586,-2.824,-7.281,2.500,16.050,31.950,-39.600
12.76,0,-63.865,-21.692,108.162,-1.961,-7.510,2.359,14.550,35.100,-37.500
12.87,0,-63.502,-24.584,108.577,-2.303,-7.660,1.980,12.900,36.900,-36.150
12.96,0,-62.585,-27.129,110.024,-1.584,-7.846,1.553,11.550,36.600,-36.750
13.07,0,-61.079,-29.488,110.677,-1.271,-8.129,1.449,10.650,36.450,-33.600
13.18,0,-59.516,-31.809,111.015,-1.137,-8.016,1.068,9.150,37.950,-33.900
13.29,0,-58.852,-35.126,111.197,-1.164,-7.816,0.574,7.500,39.750,-31.500
13.40,0,-59.048,-37.687,113.131,-0.867,-8.055,0.414,6.300,40.200,-30.150
13.50,0,-59.034,-39.872,114.299,-1.074,-8.148,0.207,5.400,42.300,-28.050
13.60,0,-58.621,-40.610,115.476,-0.080,-8.469,-0.150,6.450,40.350,-28.050
13.71,0,-58.548,-40.261,114.969,-0.625,-8.064,0.010,6.150,40.650,-28.500
13.82,0,-58.822,-39.578,114.830,-0.795,-8.195,0.121,5.250,41.700,-28.650
13.91,0,-59.072,-39.064,114.821,-0.584,-8.104,0.162,6.000,41.250,-28.200
14.02,0,-59.324,-38.731,114.190,-0.844,-8.164,0.074,7.950,42.300,-28.500
14.14,0,-59.650,-38.803,113.762,-0.799,-7.996,0.213,6.150,41.850,-28.500
14.23,0,-59.732,-38.666,113.450,-0.842,-8.148,0.150,6.000,41.250,-28.950
14.34,0,-59.781,-38.543,113.173,-0.924,-7.988,0.150,6.900,41.550,-28.800
14.45,0,-59.671,-38.561,112.959,-0.865,-8.064,0.219,6.300,41.250,-30.450
14.54,0,-59.687,-38.767,113.038,-0.729,-8.082,0.131,6.750,40.950,-27.450
14.65,0,-59.741,-38.798,112.815,-0.867,-8.105,0.129,6.150,41.100,-28.800
14.76,0,-59.710,-38.810,112.510,-0.859,-8.100,0.154,6.750,42.150,-28.650
14.87,0,-59.657,-38.808,112.321,-0.775,-8.096,0.146,7.950,40.350,-29.850
14.98,0,-59.593,-38.813,112.023,-0.807,-8.029,0.197,7.050,41.700,-29.400
15.08,0,-59.480,-38.833,111.803,-0.846,-8.023,0.195,6.300,42.150,-28.650
15.18,0,-59.446,-38.834,111.640,-0.844,-8.150,0.150,7.200,40.650,-29.250
