time,IMU#,roll,pitch,yaw,accelx,accely,accelz,compassx,compassy,compassz
0.06,0,-5.362,42.946,-39.436,-1.832,-7.813,0.412,14.550,35.100,-30.900
0.11,0,-5.202,42.824,-39.434,-1.834,-7.939,0.486,14.250,34.800,-31.500
0.17,0,-4.972,42.707,-39.417,-1.871,-7.943,0.521,13.800,34.350,-30.450
0.22,0,-4.864,42.667,-39.421,-1.883,-7.920,0.484,14.400,34.200,-31.350
0.27,0,-4.830,42.601,-39.439,-1.748,-7.969,0.559,15.000,35.100,-30.450
0.33,0,-4.865,42.456,-40.030,-1.971,-7.908,0.531,13.950,32.550,-30.600
0.37,0,-4.897,42.327,-40.303,-1.920,-7.930,0.516,13.800,33.150,-30.450
0.44,0,-5.045,42.250,-40.630,-1.883,-7.893,0.453,14.250,34.800,-30.450
0.49,0,-5.174,42.205,-40.862,-1.982,-7.898,0.475,14.550,33.600,-31.500
0.54,0,-5.221,42.178,-40.860,-1.875,-7.898,0.535,14.400,34.200,-30.600
0.59,0,-5.301,42.153,-40.795,-1.900,-7.898,0.506,13.500,33.900,-30.150
0.64,0,-5.268,42.110,-40.483,-1.930,-8.010,0.570,14.550,33.900,-30.450
0.71,0,-5.418,42.071,-40.216,-1.799,-7.877,0.549,15.450,33.750,-32.100
0.75,0,-5.481,41.927,-40.103,-1.805,-8.000,0.496,15.900,33.450,-30.600
0.81,0,-5.545,41.650,-40.436,-1.979,-7.770,0.537,14.550,32.850,-31.500
0.84,0,-5.713,41.304,-40.692,-1.848,-7.932,0.480,13.800,34.800,-30.900
0.91,0,-5.821,40.840,-41.055,-1.871,-7.752,0.512,13.800,34.350,-31.500
0.96,0,-5.955,40.368,-41.413,-1.828,-7.787,0.463,15.750,33.150,-31.200
1.01,0,-6.065,39.948,-41.956,-2.008,-7.832,0.465,15.750,31.950,-30.900
1.07,0,-6.073,39.751,-42.284,-2.000,-7.855,0.580,14.700,32.550,-31.050
1.11,0,-5.973,39.853,-42.119,-1.873,-7.861,0.533,15.450,33.450,-31.800
1.17,0,-5.749,40.143,-41.945,-1.947,-7.930,0.580,13.800,34.350,-31.200
1.22,0,-5.498,40.317,-41.982,-1.945,-7.914,0.623,15.000,32.850,-31.200
1.28,0,-5.432,40.364,-42.209,-2.039,-7.902,0.537,15.450,33.000,-31.800
1.32,0,-5.451,40.282,-42.469,-2.021,-7.957,0.557,13.650,33.750,-30.300
1.38,0,-5.609,40.141,-42.768,-2.094,-7.906,0.529,13.800,33.150,-31.200
1.43,0,-5.795,40.080,-42.815,-1.973,-7.943,0.480,14.550,33.150,-29.700
1.48,0,-5.988,40.163,-42.806,-1.951,-7.828,0.543,14.550,33.900,-32.250
1.54,0,-6.148,40.241,-42.724,-1.945,-7.879,0.574,13.500,33.150,-31.950
1.59,0,-6.281,40.296,-42.633,-1.904,-7.893,0.520,15.450,33.000,-31.800
1.64,0,-6.386,40.300,-42.616,-2.020,-7.863,0.553,14.250,32.400,-32.250
1.69,0,-6.397,40.267,-42.484,-1.896,-7.869,0.523,15.750,33.600,-31.200
1.74,0,-6.452,40.202,-42.439,-2.006,-7.893,0.531,14.250,34.350,-31.500
1.81,0,-6.428,40.104,-42.259,-1.898,-7.863,0.533,14.550,33.900,-31.200
1.85,0,-6.385,40.030,-42.049,-1.930,-7.889,0.500,14.400,32.250,-30.300
1.91,0,-6.297,39.979,-41.775,-1.836,-7.881,0.555,15.900,34.950,-32.850
1.95,0,-6.229,39.914,-41.602,-1.861,-7.924,0.604,13.200,33.450,-31.050
2.01,0,-6.214,39.835,-41.542,-1.924,-7.871,0.580,13.050,33.600,-30.900
2.06,0,-6.230,39.733,-41.594,-1.883,-7.941,0.588,15.450,33.750,-31.050
2.12,0,-6.309,39.647,-41.792,-1.949,-7.855,0.617,15.300,33.900,-30.900
2.17,0,-6.440,39.625,-42.011,-1.949,-7.869,0.588,15.750,34.350,-30.150
2.22,0,-6.523,39.646,-42.121,-1.924,-7.857,0.604,14.550,35.100,-31.500
2.27,0,-6.564,39.691,-42.267,-1.943,-7.877,0.557,14.400,33.450,-31.350
2.33,0,-6.623,39.700,-42.424,-2.000,-7.875,0.615,13.950,34.200,-31.800
2.37,0,-6.633,39.765,-42.400,-1.867,-7.820,0.604,15.450,34.200,-31.800
2.44,0,-6.669,39.793,-42.473,-1.916,-7.889,0.604,13.050,32.400,-30.450
2.49,0,-6.658,39.835,-42.613,-1.904,-7.902,0.584,13.800,34.800,-30.450
2.54,0,-6.662,39.887,-42.723,-1.977,-7.826,0.576,12.300,33.600,-31.950
2.59,0,-6.673,39.951,-42.750,-1.926,-7.855,0.537,13.200,33.450,-29.850
2.64,0,-6.646,39.999,-42.734,-1.924,-7.938,0.561,13.800,35.100,-30.900
2.69,0,-6.616,40.023,-42.781,-1.904,-7.957,0.545,16.050,34.350,-31.500
2.75,0,-6.556,40.028,-42.849,-1.883,-7.877,0.547,14.250,33.900,-30.150
2.81,0,-6.542,39.994,-42.929,-1.943,-7.898,0.563,13.950,33.750,-30.300
2.86,0,-6.518,39.952,-42.923,-1.904,-7.902,0.547,14.550,33.900,-30.150
2.91,0,-6.499,39.923,-42.936,-1.924,-7.943,0.572,13.650,33.750,-31.350
2.96,0,-6.497,39.903,-42.935,-1.928,-7.883,0.492,14.400,33.450,-29.850
3.01,0,-6.496,39.841,-42.934,-1.895,-7.863,0.537,15.150,33.750,-31.350
3.08,0,-6.454,39.777,-42.938,-1.943,-7.918,0.559,14.550,33.900,-31.200
3.12,0,-6.418,39.687,-42.934,-1.867,-7.975,0.541,13.800,31.950,-30.450
3.17,0,-6.371,39.547,-43.230,-2.016,-7.775,0.584,13.800,33.900,-31.200
3.22,0,-6.455,39.473,-43.254,-1.861,-7.928,0.564,15.750,33.600,-30.450
3.27,0,-6.495,39.356,-43.379,-1.984,-7.920,0.549,13.950,34.200,-29.550
3.32,0,-6.545,39.304,-43.539,-1.930,-7.873,0.563,13.200,33.000,-30.600
3.39,0,-6.538,39.261,-43.365,-1.826,-7.900,0.445,15.150,35.250,-31.800
3.44,0,-6.456,39.219,-43.425,-1.922,-7.867,0.629,14.400,35.250,-31.800
3.49,0,-6.440,39.228,-43.393,-1.941,-7.836,0.570,13.650,32.550,-29.850
3.54,0,-6.403,39.287,-43.316,-1.895,-7.873,0.578,15.000,34.800,-30.150
3.59,0,-6.333,39.348,-43.416,-2.012,-7.895,0.609,15.450,33.750,-31.050
3.64,0,-6.246,39.360,-43.457,-1.971,-7.973,0.625,15.450,33.750,-31.050
3.71,0,-6.191,39.332,-43.489,-2.035,-7.924,0.512,14.700,34.500,-31.050
3.76,0,-6.267,39.314,-43.451,-2.047,-7.814,0.455,14.550,33.150,-30.150
3.81,0,-6.559,39.391,-43.790,-2.246,-7.918,0.555,15.300,34.800,-31.950
3.86,0,-6.988,39.676,-43.474,-1.717,-7.809,0.512,15.750,33.150,-30.900
3.91,0,-7.133,39.788,-43.172,-1.547,-7.832,0.484,14.700,33.750,-29.850
3.96,0,-7.047,39.593,-43.499,-1.887,-7.900,0.662,15.750,33.600,-32.700
4.02,0,-6.953,39.427,-43.628,-1.898,-7.904,0.551,15.300,32.850,-30.900
4.08,0,-6.898,39.417,-43.507,-1.988,-7.900,0.605,13.800,34.800,-31.200
4.12,0,-6.926,39.484,-43.397,-1.891,-7.922,0.545,15.300,33.900,-31.500
4.17,0,-7.050,39.614,-43.469,-1.912,-7.912,0.613,14.550,34.350,-32.700
4.22,0,-7.188,39.651,-43.599,-1.787,-7.768,0.582,14.400,33.750,-30.600
4.27,0,-7.151,39.600,-43.912,-1.937,-7.895,0.555,13.950,34.950,-31.800
4.34,0,-7.119,39.505,-44.215,-2.059,-7.984,0.609,14.250,34.350,-31.500
4.39,0,-7.272,39.542,-44.292,-1.988,-7.861,0.566,13.950,33.750,-31.800
4.44,0,-7.402,39.649,-44.279,-1.914,-7.906,0.574,13.800,32.850,-31.500
4.49,0,-7.450,39.696,-44.162,-1.881,-7.902,0.627,14.400,34.950,-31.350
4.54,0,-7.472,39.671,-44.203,-1.969,-7.814,0.557,16.050,33.900,-31.200
4.59,0,-7.505,39.644,-44.179,-2.012,-7.881,0.645,15.750,34.350,-32.250
4.66,0,-7.629,39.665,-43.785,-1.758,-7.883,0.643,15.000,34.800,-31.950
4.71,0,-7.593,39.577,-43.501,-1.748,-7.924,0.605,14.550,32.850,-31.950
4.76,0,-7.323,39.342,-43.399,-1.834,-8.037,0.680,14.250,33.900,-30.900
4.81,0,-7.042,39.007,-43.332,-1.906,-8.004,0.639,15.750,33.900,-31.950
4.86,0,-6.746,38.627,-43.286,-1.934,-7.873,0.652,14.550,33.600,-32.250
4.91,0,-6.641,38.254,-43.457,-1.975,-7.953,0.641,14.700,33.450,-31.800
4.96,0,-6.644,37.882,-43.835,-2.055,-7.898,0.445,15.750,33.150,-31.950
5.02,0,-6.502,37.534,-44.053,-2.217,-7.900,0.641,15.150,32.550,-29.850
5.08,0,-6.496,37.170,-43.705,-2.047,-7.893,0.689,14.700,33.000,-31.800
5.12,0,-6.888,36.665,-43.834,-2.012,-8.004,0.658,15.000,32.850,-31.950
5.17,0,-7.650,35.774,-44.465,-2.221,-7.922,0.689,15.750,31.950,-32.700
5.22,0,-9.202,34.270,-45.466,-1.797,-7.898,1.014,16.050,33.150,-33.000
5.29,0,-11.264,32.020,-47.782,-2.064,-8.096,1.352,15.750,33.150,-34.200
5.34,0,-13.951,28.321,-51.562,-2.385,-7.898,1.854,16.500,30.900,-34.950
5.39,0,-16.923,23.489,-56.274,-2.459,-8.031,2.012,18.300,30.450,-35.250
5.44,0,-19.764,17.633,-61.552,-2.486,-7.701,2.162,18.450,28.800,-37.650
5.48,0,-21.789,11.199,-67.441,-2.934,-7.307,2.729,19.950,27.900,-39.900
5.54,0,-23.724,4.559,-71.875,-3.193,-6.988,2.973,18.450,26.850,-41.700
5.61,0,-24.663,-1.945,-74.810,-2.607,-6.916,3.551,21.900,23.250,-43.500
5.66,0,-25.125,-8.736,-78.021,-3.525,-6.352,3.887,22.500,23.100,-43.650
5.71,0,-24.764,-15.806,-80.962,-3.547,-6.047,4.043,23.400,19.800,-45.750
5.76,0,-23.276,-23.059,-83.869,-3.855,-5.857,4.361,24.300,16.200,-46.650
5.81,0,-20.988,-30.325,-86.976,-4.117,-5.441,4.563,26.250,13.050,-47.400
5.86,0,-18.639,-37.281,-90.209,-4.615,-4.744,4.785,27.750,10.350,-47.100
5.91,0,-17.725,-43.960,-92.110,-4.752,-4.438,4.803,28.950,6.750,-48.000
5.97,0,-14.861,-50.488,-94.674,-4.863,-4.248,4.998,29.700,5.550,-47.550
6.01,0,-8.836,-57.039,-99.986,-5.133,-3.652,5.012,31.200,1.650,-47.550
6.08,0,0.002,-63.065,-107.531,-5.516,-2.969,4.961,32.250,-1.500,-47.100
6.11,0,11.986,-68.599,-117.814,-6.113,-2.531,5.182,32.700,-4.800,-45.750
6.17,0,27.178,-73.226,-131.806,-6.016,-1.973,5.221,33.300,-7.650,-43.650
6.23,0,46.687,-77.040,-150.913,-6.191,-1.512,5.094,34.650,-12.150,-44.250
6.29,0,74.201,-79.447,-178.800,-6.154,-0.895,4.920,33.000,-16.200,-44.850
6.33,0,106.180,-78.747,148.819,-5.545,-0.756,5.063,33.450,-18.300,-45.750
6.39,0,125.065,-75.032,129.879,-5.779,-0.043,5.129,33.000,-21.900,-44.100
6.44,0,134.381,-70.244,122.037,-5.869,0.424,5.168,31.200,-26.400,-42.750
6.49,0,140.157,-66.047,116.412,-5.828,1.027,5.137,31.950,-28.350,-43.200
6.54,0,144.576,-62.305,112.112,-5.658,1.133,5.004,30.000,-30.150,-42.300
6.61,0,147.059,-58.592,110.346,-5.564,1.684,5.016,29.700,-32.550,-42.000
6.64,0,148.644,-55.078,110.153,-5.584,2.121,5.031,30.300,-35.550,-41.100
6.71,0,150.549,-52.194,109.855,-5.543,2.199,4.822,28.800,-37.050,-40.800
6.76,0,152.441,-49.354,110.805,-5.383,2.590,4.941,28.050,-37.050,-38.250
6.81,0,153.653,-47.112,111.627,-5.701,2.709,4.754,27.750,-40.200,-37.800
6.86,0,155.021,-45.210,111.591,-5.600,2.873,4.734,26.400,-41.100,-38.700
6.91,0,156.113,-43.645,110.991,-5.375,3.146,4.494,27.000,-42.450,-37.500
6.96,0,157.414,-42.000,111.652,-5.402,3.490,4.639,24.750,-43.200,-37.050
7.01,0,158.939,-40.362,113.301,-5.285,3.520,4.678,25.050,-43.950,-37.500
7.08,0,160.131,-38.979,114.988,-5.248,3.670,4.598,25.050,-44.850,-34.500
7.13,0,160.535,-38.177,116.018,-5.162,3.789,4.273,24.150,-45.000,-35.400
7.17,0,160.875,-37.468,117.382,-5.332,4.012,4.313,23.550,-47.550,-36.300
7.23,0,161.671,-36.836,119.041,-5.170,4.000,4.330,23.250,-47.850,-36.000
7.27,0,162.088,-36.309,120.663,-5.285,4.264,4.314,21.750,-47.550,-34.950
7.33,0,162.399,-35.941,121.548,-4.961,4.266,4.299,21.900,-47.700,-35.100
7.39,0,162.565,-35.740,122.876,-4.582,4.508,4.141,20.550,-48.300,-34.950
7.44,0,163.227,-35.663,124.672,-4.863,4.445,4.275,20.250,-50.550,-34.950
7.48,0,163.706,-35.756,126.516,-4.826,4.445,4.400,20.250,-49.800,-34.950
7.55,0,164.189,-36.038,128.384,-4.771,4.691,4.271,19.950,-51.150,-35.400
7.61,0,164.412,-36.515,130.221,-4.723,4.682,4.086,19.650,-49.950,-33.900
7.66,0,164.621,-37.023,132.355,-4.807,4.715,4.357,19.950,-51.150,-35.400
7.71,0,164.905,-37.605,134.761,-4.646,4.582,4.324,19.950,-50.850,-34.350
7.76,0,165.266,-38.336,137.008,-4.676,4.508,4.270,18.150,-51.600,-32.850
7.81,0,165.411,-39.138,139.383,-4.762,4.727,4.250,20.400,-50.400,-33.900
7.86,0,165.511,-39.940,141.989,-4.662,4.666,4.211,18.150,-52.350,-33.300
7.91,0,166.421,-40.704,145.327,-4.514,4.646,3.943,19.500,-52.200,-35.250
7.96,0,166.165,-41.686,149.059,-5.328,4.879,4.285,18.750,-52.950,-32.250
8.03,0,165.976,-42.540,151.044,-4.740,4.785,4.076,17.700,-50.850,-32.100
8.08,0,165.963,-43.417,152.998,-4.576,4.756,4.219,19.200,-51.600,-33.300
8.13,0,166.261,-44.407,155.853,-4.629,4.711,4.213,18.900,-51.900,-33.900
8.17,0,166.844,-45.473,158.498,-4.977,4.912,4.258,19.800,-50.250,-33.000
8.23,0,167.239,-46.443,160.661,-4.686,4.840,4.035,18.150,-50.400,-33.900
8.28,0,167.533,-47.343,163.161,-4.871,4.803,4.141,18.300,-51.000,-31.950
8.34,0,167.641,-48.291,165.729,-4.930,4.785,3.932,20.550,-51.750,-32.250
8.40,0,167.804,-49.345,167.672,-4.793,4.852,3.961,19.050,-51.000,-31.200
8.44,0,168.074,-50.496,169.631,-4.746,4.832,3.937,19.200,-51.150,-32.550
8.50,0,168.263,-51.607,171.531,-4.910,4.859,4.055,19.800,-50.550,-32.700
8.54,0,168.617,-52.599,173.188,-4.787,4.752,4.152,19.200,-51.600,-32.850
8.60,0,168.697,-53.471,174.872,-4.924,4.854,4.121,18.150,-51.600,-32.850
8.64,0,169.014,-54.240,176.712,-4.641,4.889,4.102,18.150,-50.850,-31.050
8.71,0,169.331,-55.029,178.578,-4.750,4.750,3.975,18.300,-52.500,-32.250
8.76,0,169.685,-55.896,-179.919,-4.848,4.980,3.930,18.000,-54.000,-31.500
8.81,0,170.175,-56.859,-178.925,-4.814,4.969,3.979,18.300,-53.250,-33.000
8.86,0,170.649,-57.834,-177.406,-4.957,4.793,4.018,19.050,-52.500,-32.700
8.92,0,171.099,-58.782,-176.317,-4.863,4.891,3.904,18.300,-51.300,-32.250
8.96,0,171.531,-59.765,-174.969,-4.830,4.768,3.998,19.200,-51.900,-31.350
9.02,0,171.872,-60.712,-173.948,-4.859,4.879,3.937,18.750,-51.300,-30.900
9.08,0,172.390,-61.675,-172.988,-4.828,4.754,3.996,18.750,-53.250,-32.250
9.13,0,172.780,-62.616,-172.013,-4.875,4.891,3.947,18.000,-51.300,-31.500
9.17,0,173.208,-63.501,-171.134,-4.854,4.873,3.975,18.450,-53.100,-32.550
9.23,0,173.294,-64.511,-169.795,-4.920,4.846,3.998,18.450,-51.600,-32.850
9.29,0,173.625,-65.332,-169.239,-4.945,4.887,3.934,18.300,-52.200,-32.250
9.33,0,173.957,-66.114,-168.994,-4.992,4.842,4.061,18.450,-51.900,-32.850
9.39,0,174.149,-66.810,-168.183,-4.984,4.779,3.982,18.300,-53.250,-32.250
9.44,0,174.555,-67.499,-167.696,-4.887,4.730,4.025,19.200,-52.350,-32.100
9.51,0,174.736,-68.149,-167.324,-4.887,4.852,3.898,18.750,-51.750,-31.200
9.54,0,175.230,-68.799,-167.248,-4.934,4.859,4.074,18.300,-53.250,-31.950
9.61,0,175.653,-69.405,-167.192,-4.699,4.889,3.941,18.750,-51.300,-31.950
9.66,0,175.901,-70.151,-166.681,-4.926,4.824,4.041,16.800,-52.200,-33.000
9.71,0,176.471,-70.873,-166.905,-4.805,4.896,3.937,17.250,-53.700,-31.200
9.76,0,176.959,-71.612,-167.048,-4.779,4.826,3.961,19.500,-54.000,-31.950
9.81,0,177.173,-72.390,-166.507,-4.855,4.891,4.080,17.550,-52.950,-31.500
9.86,0,177.678,-73.102,-166.621,-4.842,4.854,4.027,18.900,-53.100,-32.550
9.91,0,178.401,-73.721,-166.995,-4.787,4.826,3.988,17.700,-53.100,-31.350
9.97,0,178.791,-74.378,-167.083,-4.961,4.807,4.023,17.700,-51.600,-31.350
10.03,0,179.292,-74.995,-167.251,-4.807,4.818,4.053,18.150,-51.900,-31.800
10.08,0,179.937,-75.620,-167.551,-4.762,4.824,3.926,19.050,-52.950,-32.700
10.13,0,-179.787,-76.342,-167.383,-4.814,4.826,4.076,18.000,-53.700,-31.950
10.18,0,-179.010,-76.944,-167.993,-4.902,4.840,3.947,18.300,-52.950,-32.250
10.24,0,-178.932,-77.683,-167.557,-4.930,4.865,4.082,18.450,-53.550,-32.550
10.29,0,-178.461,-78.377,-167.827,-4.842,4.840,4.070,18.900,-50.400,-32.550
10.34,0,-177.684,-78.946,-168.582,-4.928,4.887,3.992,18.450,-52.650,-31.050
10.39,0,-176.732,-79.394,-169.587,-4.832,4.816,3.986,16.800,-51.300,-32.700
10.44,0,-176.362,-79.899,-169.960,-4.947,4.861,4.031,18.000,-51.000,-31.500
10.48,0,-175.033,-80.297,-171.498,-4.744,4.813,3.971,18.750,-52.200,-32.700
10.54,0,-174.662,-80.871,-171.632,-4.646,4.785,4.189,19.050,-52.950,-31.500
10.61,0,-173.306,-81.399,-173.237,-4.871,4.875,3.887,18.000,-51.750,-33.450
10.65,0,-172.122,-81.898,-174.452,-4.852,4.789,4.084,17.700,-52.650,-33.300
10.71,0,-171.626,-82.334,-175.182,-4.941,4.928,3.990,18.000,-52.950,-30.450
10.76,0,-171.411,-82.812,-175.336,-4.857,4.867,3.947,18.900,-52.650,-33.600
10.81,0,-172.406,-83.270,-174.145,-4.951,4.850,3.928,18.450,-52.650,-31.800
10.86,0,-171.989,-83.655,-174.720,-4.898,4.795,3.992,18.450,-52.350,-32.550
10.93,0,-169.811,-83.939,-177.395,-4.865,4.912,3.834,18.000,-52.500,-30.450
10.97,0,-169.119,-84.354,-178.140,-4.914,4.822,3.969,18.000,-52.950,-31.950
11.03,0,-167.136,-84.738,179.582,-4.879,4.926,3.875,17.550,-53.700,-31.950
11.07,0,-164.691,-85.150,177.015,-4.816,4.836,3.865,18.450,-51.600,-32.850
11.13,0,-164.034,-85.599,176.206,-5.029,4.900,3.945,19.800,-53.250,-34.200
11.18,0,-161.203,-85.981,173.135,-4.842,4.857,3.953,17.550,-53.250,-32.250
11.23,0,-157.683,-86.128,169.157,-4.996,4.896,4.025,19.050,-52.500,-32.700
11.28,0,-153.469,-86.027,164.333,-4.863,4.863,3.988,16.500,-51.750,-31.500
11.34,0,-149.535,-85.744,159.525,-4.797,4.877,3.891,18.300,-51.750,-33.000
11.39,0,-149.483,-85.742,159.193,-4.766,4.982,3.965,18.750,-52.200,-32.700
11.44,0,-148.492,-85.792,157.906,-4.715,4.934,4.021,18.150,-52.650,-32.550
11.49,0,-144.860,-85.711,153.563,-4.750,4.965,3.980,17.400,-52.350,-32.550
11.54,0,-139.630,-85.538,147.622,-4.525,4.955,4.041,16.950,-52.650,-32.550
11.61,0,-136.991,-85.745,144.668,-4.773,5.000,3.846,18.000,-54.000,-31.200
11.66,0,-133.107,-86.082,140.661,-4.686,4.949,4.072,16.650,-52.650,-32.100
11.71,0,-128.649,-86.356,135.866,-4.709,4.984,3.869,16.650,-51.900,-31.350
11.76,0,-122.364,-86.725,129.292,-4.758,4.969,3.973,18.150,-53.850,-31.050
11.81,0,-114.656,-86.985,121.246,-4.604,4.934,3.922,17.700,-53.100,-32.850
11.86,0,-102.923,-87.138,108.961,-4.832,4.961,3.838,19.200,-53.100,-31.350
11.91,0,-85.061,-86.993,90.527,-4.648,4.770,3.822,17.550,-52.200,-31.950
11.98,0,-64.418,-86.487,69.309,-4.652,4.770,3.750,17.250,-52.950,-31.200
12.03,0,-44.248,-85.517,48.712,-4.848,4.896,3.744,18.300,-52.500,-31.500
12.08,0,-31.841,-83.773,36.026,-4.711,4.525,4.006,18.000,-51.000,-31.950
12.13,0,-21.805,-81.554,25.617,-4.828,4.473,3.863,19.800,-51.300,-33.750
12.18,0,-18.897,-78.731,21.926,-4.766,4.420,3.883,20.700,-49.950,-32.850
12.23,0,-14.509,-75.369,17.178,-5.115,4.164,4.025,22.500,-48.300,-31.950
12.29,0,-11.985,-71.637,14.103,-5.301,3.871,4.000,24.300,-47.550,-34.500
12.35,0,-10.772,-67.434,12.131,-5.350,3.666,4.176,24.000,-47.100,-35.550
12.39,0,-8.568,-63.149,9.292,-5.510,3.355,4.111,25.800,-43.650,-35.550
12.45,0,-5.141,-58.425,5.600,-5.758,3.061,4.166,26.400,-44.250,-34.350
12.49,0,-1.090,-53.577,1.525,-6.414,2.771,4.162,28.500,-42.900,-34.950
12.54,0,-0.034,-48.828,-0.377,-6.393,2.566,4.148,27.300,-39.750,-35.250
12.61,0,0.302,-44.320,-1.948,-6.414,2.090,4.107,29.250,-37.800,-34.200
12.66,0,0.486,-39.810,-3.260,-6.471,1.826,4.096,29.700,-35.250,-33.900
12.71,0,1.420,-35.254,-4.462,-6.957,1.682,3.953,31.800,-35.550,-35.250
12.76,0,0.960,-30.962,-3.868,-6.844,1.152,4.082,32.700,-32.550,-33.300
12.81,0,0.382,-26.711,-3.982,-6.723,0.887,4.066,33.450,-31.500,-34.350
12.88,0,-0.168,-22.298,-4.757,-6.838,0.570,3.934,32.550,-28.200,-34.950
12.91,0,-0.213,-17.495,-5.883,-6.838,0.064,3.830,34.200,-27.600,-37.200
12.98,0,0.258,-12.738,-6.834,-7.229,-0.121,3.863,34.500,-24.750,-35.250
13.01,0,0.551,-8.011,-7.488,-6.959,-0.578,4.039,35.550,-21.900,-35.250
13.08,0,0.311,-3.558,-8.568,-6.709,-1.057,4.002,36.300,-20.100,-35.250
13.13,0,0.021,1.430,-9.037,-7.021,-1.344,3.809,36.000,-16.950,-34.500
13.18,0,-0.782,5.824,-8.497,-6.711,-1.721,3.887,37.200,-13.200,-36.600
13.24,0,-0.949,9.936,-9.674,-7.078,-1.992,4.035,36.150,-11.700,-35.850
13.28,0,-1.103,14.331,-10.000,-6.535,-2.459,3.562,35.700,-10.950,-36.900
13.35,0,-1.227,18.236,-10.333,-6.773,-2.590,3.867,36.150,-7.800,-36.900
13.39,0,-1.803,22.111,-10.976,-6.389,-2.965,3.953,37.650,-5.850,-37.200
13.44,0,-2.632,25.956,-11.962,-6.500,-3.309,3.805,36.450,-2.850,-37.200
13.51,0,-2.844,29.656,-13.138,-6.115,-3.650,3.777,36.150,-2.400,-36.600
13.55,0,-2.886,33.526,-14.928,-5.965,-3.799,3.660,35.550,-0.300,-37.050
13.61,0,-3.044,37.575,-16.180,-5.674,-4.168,3.469,34.650,0.900,-37.200
13.66,0,-2.906,41.953,-16.872,-5.811,-4.504,3.467,33.150,5.850,-38.400
13.71,0,-2.263,46.124,-17.042,-5.621,-4.656,3.439,33.300,6.450,-37.500
13.77,0,-0.876,50.289,-16.253,-5.484,-5.074,3.391,33.750,9.600,-36.300
13.81,0,0.796,54.066,-14.992,-5.375,-5.432,3.391,31.200,11.700,-36.600
13.88,0,3.278,57.554,-12.509,-5.234,-5.783,3.361,30.000,15.750,-36.300
13.93,0,6.587,59.886,-9.061,-4.816,-6.035,3.465,28.950,16.800,-35.850
13.98,0,9.633,62.033,-5.466,-4.559,-6.148,3.225,28.200,15.900,-37.200
14.03,0,13.558,63.330,-0.616,-4.736,-6.318,2.941,27.300,17.700,-36.750
14.08,0,17.320,64.582,2.747,-4.094,-6.139,2.850,27.150,20.550,-36.900
14.13,0,20.417,65.271,4.684,-4.129,-6.461,3.088,25.650,21.450,-37.650
14.18,0,24.410,65.502,8.398,-4.109,-6.596,3.037,26.400,20.550,-37.650
14.24,0,29.004,65.735,12.607,-3.920,-6.639,2.654,25.800,23.550,-37.050
14.28,0,34.848,65.612,19.146,-3.756,-6.689,2.584,25.500,23.100,-37.050
14.35,0,40.595,65.215,25.025,-3.283,-6.820,2.441,23.550,23.850,-37.800
14.39,0,46.490,65.366,30.045,-3.260,-7.309,2.463,23.700,25.200,-37.200
14.45,0,52.748,64.906,36.398,-3.273,-7.025,2.348,21.900,26.850,-35.400
14.49,0,60.048,62.958,44.900,-2.695,-7.348,1.932,20.700,27.150,-36.150
14.55,0,67.750,59.999,53.100,-2.352,-7.531,1.375,21.000,28.200,-35.250
14.62,0,75.801,58.008,59.355,-2.697,-7.682,1.836,18.900,29.850,-32.100
14.65,0,80.462,55.134,63.725,-2.930,-7.582,1.449,18.150,31.500,-32.850
14.72,0,82.192,50.850,66.878,-2.182,-7.869,0.760,17.400,32.250,-31.350
14.76,0,83.851,47.967,68.300,-1.988,-7.762,0.709,17.250,34.350,-29.700
14.82,0,85.442,46.027,68.466,-2.203,-7.842,0.746,17.250,33.900,-28.950
14.87,0,86.016,45.162,67.468,-2.125,-7.906,0.463,13.500,33.600,-28.950
14.92,0,85.341,45.205,65.459,-2.168,-8.070,0.451,16.650,33.750,-27.750
14.97,0,84.000,45.688,62.821,-2.279,-7.775,0.408,16.200,33.000,-28.050
15.02,0,81.828,46.221,59.551,-2.201,-7.881,0.404,16.650,31.500,-28.800
15.08,0,79.325,46.918,56.096,-2.264,-7.830,0.375,15.900,33.450,-29.850
15.13,0,76.826,47.599,52.702,-2.217,-7.842,0.260,16.500,32.850,-29.700
15.19,0,74.316,48.192,49.407,-2.074,-7.820,0.373,16.500,32.400,-28.650
15.23,0,72.185,48.912,46.299,-2.326,-7.813,0.438,15.750,32.400,-28.650
15.29,0,70.011,49.216,43.309,-2.158,-7.852,0.393,17.550,33.900,-29.700
15.33,0,68.154,49.760,40.428,-2.354,-7.934,0.596,15.150,33.000,-29.850
15.40,0,66.103,50.128,37.911,-2.477,-7.752,0.555,16.200,32.550,-29.250
15.45,0,64.101,50.259,35.526,-2.471,-7.848,0.678,18.000,32.850,-30.900
15.50,0,61.741,50.075,33.161,-2.352,-7.746,0.619,16.800,33.600,-30.900
15.55,0,59.261,49.722,30.819,-2.113,-7.857,0.594,16.650,33.000,-31.350
15.60,0,56.976,49.563,28.029,-2.355,-7.924,0.791,17.700,33.000,-30.300
15.65,0,54.832,49.271,25.683,-2.318,-7.842,0.906,17.250,33.150,-31.950
15.72,0,52.686,48.790,23.878,-2.078,-7.807,0.654,15.750,33.150,-31.950
15.77,0,50.722,48.592,21.780,-2.053,-7.691,0.631,15.750,31.650,-31.200
15.82,0,48.862,48.589,19.358,-2.367,-7.723,0.680,16.500,32.850,-32.700
15.87,0,47.110,48.458,17.085,-2.215,-7.727,0.746,17.250,31.650,-32.250
15.92,0,45.401,48.413,14.946,-2.217,-7.789,0.762,17.550,31.200,-31.200
15.97,0,43.803,48.476,12.912,-2.213,-7.699,0.770,16.800,31.200,-32.250
16.04,0,42.357,48.589,10.904,-2.205,-7.695,0.781,15.750,32.400,-31.950
16.08,0,41.178,48.771,9.049,-2.326,-7.641,0.752,16.650,32.550,-32.100
16.14,0,39.964,48.966,7.164,-2.359,-7.633,0.787,16.650,31.500,-31.350
16.18,0,38.918,49.082,5.553,-2.039,-7.480,0.703,17.250,31.950,-32.250
16.24,0,38.068,49.254,3.619,-2.375,-7.842,0.873,17.250,31.950,-32.250
16.28,0,37.319,49.515,1.718,-2.678,-7.791,1.012,17.700,31.800,-31.800
16.34,0,36.829,49.146,1.084,-2.412,-7.795,0.879,16.800,32.850,-31.950
16.40,0,35.974,48.565,0.210,-2.217,-7.813,0.727,16.050,32.850,-31.200
16.45,0,35.186,48.326,-0.857,-2.299,-7.830,0.848,16.050,32.400,-30.450
16.52,0,34.009,48.115,-2.209,-2.385,-7.725,0.775,17.250,30.450,-31.950
16.55,0,32.943,47.832,-3.678,-2.229,-7.783,0.662,18.900,30.600,-32.550
16.60,0,31.903,47.710,-5.467,-2.531,-7.887,0.715,18.000,32.400,-31.200
16.67,0,31.153,47.605,-6.872,-2.410,-7.754,0.822,16.950,31.800,-31.350
16.72,0,30.456,47.521,-7.758,-2.404,-7.803,0.633,18.000,31.650,-31.950
16.77,0,29.713,47.685,-8.658,-2.437,-7.758,0.631,17.550,31.200,-30.150
16.82,0,29.066,47.866,-9.476,-2.357,-7.863,0.643,18.450,32.250,-29.250
16.87,0,28.365,48.214,-10.380,-2.350,-7.764,0.559,16.800,31.200,-29.700
16.92,0,27.500,48.613,-11.046,-2.119,-7.607,0.432,16.050,31.650,-30.900
16.98,0,27.247,48.997,-11.783,-2.193,-7.768,0.748,17.700,33.000,-31.050
17.04,0,26.785,49.378,-13.161,-2.609,-7.756,0.760,17.250,31.650,-30.150
17.09,0,26.318,49.587,-13.709,-2.311,-7.754,0.631,15.900,31.800,-30.300
17.14,0,25.757,49.547,-14.158,-2.242,-7.852,0.635,16.500,33.150,-29.400
17.18,0,24.875,49.349,-15.110,-2.426,-7.775,0.641,18.000,33.150,-30.150
17.24,0,23.723,48.925,-16.092,-2.254,-7.854,0.641,16.650,33.750,-29.550
17.30,0,22.613,48.519,-17.259,-2.314,-7.818,0.680,16.500,31.950,-30.900
17.35,0,21.346,48.083,-18.389,-2.342,-7.754,0.602,15.150,32.550,-31.800
17.40,0,20.273,47.734,-19.298,-2.467,-7.646,0.709,16.500,32.400,-31.200
17.45,0,19.466,47.206,-19.568,-2.225,-7.701,0.641,16.200,32.250,-29.850
17.50,0,18.908,46.804,-19.756,-2.197,-7.781,0.635,15.750,32.850,-31.500
17.55,0,18.362,46.589,-20.227,-2.375,-7.813,0.713,16.950,31.050,-30.600
17.62,0,17.868,46.486,-20.607,-2.209,-7.713,0.623,18.300,31.200,-30.900
17.67,0,17.467,46.431,-20.827,-2.322,-7.684,0.627,16.800,31.650,-30.900
17.72,0,17.078,46.239,-20.839,-2.139,-7.803,0.646,16.800,32.400,-33.000
17.77,0,16.509,46.102,-21.275,-2.088,-8.020,0.781,15.900,33.750,-29.850
17.82,0,15.918,46.156,-21.918,-2.195,-7.715,0.672,16.500,31.650,-32.250
17.87,0,15.334,46.198,-22.495,-2.170,-7.742,0.627,17.250,31.950,-31.950
17.92,0,15.096,46.301,-23.091,-2.135,-7.781,0.734,17.550,30.900,-30.900
17.99,0,14.886,46.434,-23.583,-2.057,-7.979,0.660,16.500,31.950,-30.900
18.02,0,14.534,46.861,-24.564,-2.264,-7.830,0.639,16.200,32.550,-30.600
18.09,0,14.292,47.220,-25.255,-2.053,-7.693,0.516,16.200,32.250,-30.300
18.14,0,14.117,47.605,-26.085,-2.176,-7.697,0.439,16.650,33.450,-30.600
18.19,0,14.012,47.867,-26.676,-2.395,-7.854,0.529,16.200,34.200,-28.800
18.24,0,13.780,47.891,-26.949,-2.227,-7.865,0.543,15.150,33.000,-29.850
18.30,0,13.393,47.998,-27.399,-2.256,-7.877,0.482,15.900,33.450,-27.300
18.34,0,13.015,47.960,-27.722,-2.227,-7.883,0.502,17.550,32.400,-28.950
18.41,0,12.726,47.697,-27.910,-2.129,-7.910,0.434,15.750,33.150,-29.400
18.46,0,12.367,47.334,-28.110,-2.197,-7.873,0.502,15.750,32.850,-29.700
18.50,0,11.953,46.880,-28.385,-2.090,-7.965,0.488,16.200,34.500,-28.800
18.56,0,11.434,46.442,-28.822,-2.102,-7.811,0.490,15.000,33.150,-28.650
18.62,0,10.777,46.061,-29.688,-2.084,-7.717,0.471,15.150,33.000,-29.250
18.66,0,9.847,45.818,-30.851,-2.479,-7.795,0.422,18.000,32.400,-28.650
18.73,0,9.098,45.559,-31.337,-2.398,-7.754,0.502,15.450,33.000,-29.850
18.77,0,8.735,45.165,-30.747,-2.021,-7.844,0.484,16.200,33.450,-29.550
18.83,0,8.384,44.889,-30.458,-2.107,-7.848,0.590,15.750,31.950,-28.950
18.87,0,7.974,44.744,-30.187,-2.047,-7.975,0.521,16.950,33.450,-31.350
18.93,0,7.467,44.520,-30.271,-2.041,-7.834,0.557,16.800,33.600,-31.200
18.97,0,7.075,44.256,-30.611,-2.111,-7.813,0.600,15.750,33.900,-31.200
19.03,0,6.577,44.044,-30.997,-2.236,-7.824,0.578,15.300,32.850,-30.900
19.09,0,6.118,43.799,-31.180,-2.064,-7.836,0.563,16.200,31.800,-29.550
19.14,0,5.742,43.647,-31.521,-2.258,-7.834,0.523,16.500,32.400,-30.150
19.19,0,5.370,43.511,-31.673,-2.141,-7.803,0.580,17.250,33.150,-31.500
19.24,0,5.072,43.409,-31.846,-2.111,-7.793,0.545,15.900,32.250,-31.350
19.29,0,4.829,43.311,-32.048,-2.113,-7.828,0.666,15.300,33.600,-31.200
19.36,0,4.600,43.149,-32.231,-2.008,-7.857,0.613,17.250,32.400,-29.700
19.40,0,4.357,43.026,-32.812,-2.258,-7.850,0.658,16.800,31.200,-30.450
19.45,0,4.069,42.866,-33.226,-2.238,-7.721,0.564,15.300,34.800,-30.450
19.50,0,3.719,42.736,-33.617,-2.182,-7.832,0.578,16.950,32.250,-30.300
19.56,0,3.162,42.737,-34.203,-2.385,-7.842,0.686,16.650,31.050,-32.100
19.63,0,2.742,42.813,-34.211,-1.980,-7.779,0.555,16.050,32.850,-30.900
19.67,0,2.337,42.776,-34.261,-2.094,-7.875,0.725,16.500,33.900,-31.200
19.73,0,2.005,42.750,-34.570,-2.002,-7.822,0.633,15.450,33.750,-31.350
19.77,0,1.708,42.666,-34.822,-2.061,-7.865,0.625,15.450,33.000,-30.600
19.83,0,1.580,42.568,-35.121,-2.119,-7.814,0.670,15.450,33.000,-31.050
19.87,0,1.418,42.458,-35.230,-2.086,-7.854,0.592,15.750,33.600,-31.950
19.93,0,1.333,42.368,-35.346,-2.152,-7.904,0.627,15.150,31.800,-31.050
19.98,0,1.274,42.241,-35.292,-2.059,-7.813,0.623,15.450,31.800,-31.350
20.03,0,1.202,42.130,-35.322,-2.156,-7.857,0.611,15.750,31.950,-32.250
20.09,0,1.117,42.029,-35.308,-2.111,-7.842,0.627,15.000,33.600,-31.500
20.14,0,1.026,41.902,-35.426,-2.129,-7.895,0.586,16.500,33.150,-31.950
20.19,0,0.877,41.757,-35.570,-2.037,-7.852,0.551,15.150,33.000,-33.300
20.24,0,0.677,41.556,-35.967,-2.102,-7.793,0.568,16.500,33.600,-30.450
20.29,0,0.423,41.383,-36.442,-2.125,-7.885,0.598,14.400,33.450,-32.100
20.36,0,0.147,41.288,-36.950,-2.033,-7.781,0.613,16.050,32.850,-32.700
20.41,0,-0.082,41.246,-37.560,-2.266,-7.852,0.613,16.650,32.250,-32.550
