time,IMU#,roll,pitch,yaw,accelx,accely,accelz,compassx,compassy,compassz
0.11,0,0.048,-0.040,-0.875,-0.822,-7.984,0.258,6.150,42.300,-29.250
0.20,0,0.244,-0.179,-0.360,-0.582,-7.957,0.197,6.000,41.700,-30.450
0.30,0,0.485,-0.482,-0.505,-0.783,-8.164,0.219,5.550,40.950,-30.150
0.41,0,0.910,-0.665,-0.606,-0.775,-8.062,0.193,4.950,41.100,-29.850
0.51,0,1.346,-0.713,-0.821,-0.832,-8.105,0.102,5.550,41.700,-28.950
0.63,0,1.630,-0.699,-1.194,-0.873,-8.178,0.104,6.000,42.150,-29.700
0.72,0,1.741,-0.681,-1.451,-0.807,-8.135,0.020,7.050,41.700,-29.400
0.83,0,1.528,-0.651,-2.041,-0.920,-8.201,0.164,6.750,40.500,-28.200
0.94,0,0.823,-0.658,-2.601,-0.838,-8.176,0.156,6.300,41.250,-28.200
1.05,0,0.343,-0.648,-3.095,-0.840,-8.031,0.187,6.900,40.350,-29.550
1.14,0,0.025,-0.347,-3.472,-0.584,-7.926,0.307,6.900,40.350,-29.850
1.26,0,-0.790,-0.607,-4.555,-0.986,-8.301,0.590,7.050,41.250,-30.150
1.36,0,-2.477,-1.029,-5.693,-0.912,-8.088,0.650,7.950,40.650,-29.850
1.48,0,-4.490,-1.424,-7.180,-0.941,-7.902,0.830,8.400,39.150,-31.800
1.57,0,-6.128,-1.859,-8.523,-1.094,-7.975,1.027,7.050,39.300,-33.000
1.68,0,-7.184,-2.104,-9.649,-1.053,-7.926,1.236,8.250,38.550,-33.750
1.78,0,-7.671,-2.471,-10.776,-1.100,-7.846,1.213,9.300,40.500,-33.000
1.89,0,-8.202,-3.266,-12.165,-1.400,-7.945,1.584,9.900,39.600,-32.850
1.99,0,-9.020,-4.085,-12.855,-1.354,-7.887,1.496,12.000,38.550,-34.200
2.10,0,-9.813,-4.970,-13.982,-1.705,-7.822,1.617,12.000,37.800,-34.500
2.21,0,-10.698,-5.651,-14.611,-1.660,-7.670,1.764,12.000,37.800,-34.500
2.30,0,-11.670,-6.457,-15.326,-1.893,-7.709,1.805,13.050,35.850,-35.250
2.42,0,-12.599,-7.150,-15.876,-1.850,-7.645,1.994,13.650,35.700,-36.150
2.52,0,-13.489,-7.887,-16.238,-1.963,-7.637,2.035,12.900,36.450,-35.100
2.64,0,-14.234,-8.640,-16.613,-2.107,-7.557,2.182,13.050,34.350,-36.300
2.73,0,-15.015,-9.442,-17.148,-2.221,-7.500,2.371,14.250,35.100,-37.050
2.84,0,-16.034,-10.182,-17.350,-2.354,-7.461,2.391,16.050,35.100,-35.550
2.94,0,-16.986,-11.358,-17.923,-2.467,-7.301,2.500,16.800,32.850,-36.000
3.05,0,-17.843,-12.683,-18.349,-2.607,-7.369,2.521,18.150,33.000,-37.200
3.15,0,-18.832,-13.899,-18.602,-2.744,-7.139,2.816,17.550,31.200,-37.500
3.25,0,-20.024,-15.071,-19.052,-2.971,-7.023,2.965,19.950,31.800,-38.400
3.37,0,-21.276,-16.371,-19.546,-3.068,-6.842,3.002,19.500,31.650,-39.000
3.47,0,-22.753,-17.217,-19.434,-3.334,-6.648,3.180,18.900,26.850,-40.200
3.58,0,-24.211,-17.987,-18.496,-3.336,-6.621,3.076,20.250,28.200,-40.350
3.68,0,-25.136,-19.666,-19.496,-3.736,-6.475,3.561,20.700,26.850,-40.650
3.79,0,-27.078,-21.079,-19.124,-3.650,-6.381,3.662,23.400,24.900,-40.950
3.88,0,-29.196,-22.487,-18.834,-3.840,-6.033,3.777,23.400,24.450,-42.000
3.99,0,-31.279,-23.639,-18.208,-3.887,-5.807,3.926,23.550,21.150,-41.850
4.10,0,-33.026,-25.001,-17.856,-3.998,-5.566,4.113,23.700,20.550,-43.200
4.22,0,-34.474,-25.479,-17.266,-4.105,-5.205,4.156,24.150,21.450,-44.250
4.32,0,-35.526,-26.276,-16.384,-4.008,-5.320,4.326,25.650,18.300,-45.000
4.43,0,-36.173,-27.070,-16.358,-4.402,-5.141,4.494,25.650,17.550,-45.000
4.52,0,-37.250,-27.942,-15.936,-4.385,-5.139,4.539,27.000,17.700,-44.100
4.63,0,-38.598,-28.854,-15.437,-4.439,-4.945,4.559,27.900,17.100,-45.750
4.73,0,-39.819,-29.930,-14.990,-4.613,-4.729,4.490,26.400,14.850,-47.250
4.84,0,-41.174,-30.130,-14.192,-4.582,-4.572,4.723,27.900,14.400,-46.500
4.94,0,-42.194,-30.277,-13.547,-4.658,-4.543,4.799,27.750,14.250,-47.400
5.05,0,-42.849,-30.891,-13.332,-4.756,-4.330,4.813,28.050,13.800,-45.600
5.15,0,-43.920,-31.251,-12.591,-4.727,-4.363,4.863,28.800,12.750,-45.900
5.26,0,-44.961,-31.783,-11.992,-4.746,-4.066,4.838,28.200,10.950,-47.250
5.37,0,-46.087,-31.861,-11.204,-4.723,-3.996,5.045,28.950,10.500,-47.250
5.48,0,-47.020,-32.410,-10.572,-4.627,-4.035,5.127,28.200,9.450,-48.000
5.57,0,-47.939,-33.115,-9.917,-4.852,-3.937,5.102,28.200,8.700,-46.500
5.67,0,-48.827,-33.926,-9.201,-5.035,-3.787,5.117,28.800,6.900,-48.450
5.79,0,-49.535,-34.719,-8.619,-5.117,-3.592,5.105,29.700,6.300,-48.300
5.89,0,-50.298,-35.224,-7.853,-5.105,-3.545,5.133,30.300,8.100,-46.650
6.00,0,-51.043,-35.704,-7.041,-5.004,-3.508,5.104,28.950,6.750,-47.550
6.11,0,-51.737,-36.071,-6.189,-5.115,-3.369,5.189,28.950,5.850,-47.550
6.20,0,-52.462,-36.627,-5.292,-5.205,-3.281,5.334,28.800,5.700,-46.650
6.31,0,-53.277,-37.273,-4.421,-5.305,-3.141,5.277,31.200,3.150,-47.550
6.43,0,-54.168,-37.859,-3.645,-5.316,-3.100,5.207,31.500,1.800,-47.700
6.53,0,-55.673,-37.877,-2.432,-5.244,-2.939,5.453,28.500,1.050,-48.450
6.63,0,-57.189,-38.277,-1.374,-5.381,-2.764,5.371,30.300,1.800,-47.400
6.74,0,-58.671,-38.798,-0.253,-5.387,-2.500,5.373,30.300,0.300,-47.700
6.84,0,-60.022,-39.292,0.996,-5.340,-2.389,5.457,30.150,-1.350,-49.050
6.94,0,-61.190,-40.155,2.147,-5.418,-2.193,5.445,31.050,-1.500,-49.200
7.06,0,-62.383,-40.893,3.290,-5.420,-2.119,5.441,31.650,-3.150,-48.000
7.16,0,-63.425,-41.824,4.289,-5.426,-1.857,5.412,31.200,-4.050,-48.300
7.26,0,-64.389,-42.575,5.176,-5.723,-1.709,5.480,31.650,-5.550,-48.300
7.37,0,-65.436,-42.999,6.150,-5.641,-1.762,5.426,30.900,-4.350,-48.300
7.47,0,-66.188,-43.468,6.859,-5.691,-1.492,5.504,31.050,-6.150,-46.650
7.58,0,-67.583,-44.130,8.284,-5.695,-1.678,5.662,30.450,-8.250,-46.500
7.68,0,-68.962,-43.829,9.373,-5.814,-1.398,5.418,31.800,-7.200,-48.150
7.78,0,-69.701,-44.588,10.133,-5.598,-1.195,5.426,32.550,-10.800,-47.100
7.90,0,-70.623,-44.565,11.043,-5.637,-1.131,5.547,31.500,-9.600,-47.700
8.01,0,-71.495,-45.087,11.931,-5.777,-1.020,5.467,30.300,-9.150,-47.100
8.12,0,-72.080,-45.621,12.554,-5.590,-0.926,5.393,31.800,-12.750,-46.650
8.22,0,-72.279,-46.625,12.859,-5.854,-0.789,5.281,30.450,-12.450,-45.300
8.33,0,-72.468,-46.596,13.135,-5.961,-0.801,5.258,31.950,-12.150,-47.250
8.42,0,-72.990,-46.235,13.848,-5.809,-0.930,5.436,31.200,-11.700,-47.250
8.52,0,-73.789,-45.848,14.853,-5.711,-0.760,5.535,31.950,-12.150,-46.050
8.63,0,-74.478,-46.000,15.706,-5.766,-0.805,5.348,30.300,-13.050,-47.400
8.73,0,-74.579,-47.228,16.089,-6.053,-0.707,5.342,31.050,-13.050,-47.100
8.84,0,-74.479,-47.758,16.240,-5.922,-0.523,5.277,32.550,-13.050,-47.400
8.94,0,-74.490,-47.729,16.491,-6.049,-0.682,5.340,31.800,-12.300,-46.350
9.05,0,-74.593,-48.645,16.897,-6.250,-0.572,5.223,32.550,-12.750,-45.600
9.16,0,-74.701,-48.716,17.202,-6.234,-0.510,5.242,31.800,-13.500,-44.850
9.26,0,-74.924,-48.927,17.643,-6.094,-0.543,5.164,31.950,-14.100,-44.250
9.37,0,-75.037,-48.842,17.925,-6.061,-0.531,5.148,32.250,-14.550,-44.400
9.48,0,-74.973,-48.725,18.121,-6.223,-0.590,5.195,31.200,-13.650,-47.250
9.58,0,-74.974,-48.705,18.366,-6.143,-0.555,5.238,31.650,-14.100,-44.250
9.68,0,-75.331,-48.621,18.800,-5.906,-0.566,5.164,31.050,-14.250,-44.400
9.79,0,-75.563,-48.596,19.084,-6.088,-0.480,5.199,31.050,-15.450,-45.900
9.89,0,-75.741,-48.677,19.310,-6.193,-0.541,5.201,32.250,-15.000,-46.350
10.01,0,-76.101,-48.713,19.650,-6.100,-0.568,5.314,30.750,-13.800,-44.850
10.11,0,-76.472,-48.707,19.909,-6.092,-0.344,5.357,31.800,-13.500,-46.350
10.22,0,-77.097,-48.483,20.508,-5.967,-0.281,5.129,30.150,-15.150,-45.000
10.32,0,-77.438,-48.662,20.950,-5.904,-0.484,5.242,31.200,-15.600,-45.300
10.42,0,-77.611,-48.852,21.071,-6.238,-0.264,5.244,31.500,-16.950,-46.350
10.54,0,-78.173,-48.726,21.477,-6.094,-0.332,5.260,31.500,-16.200,-46.650
10.64,0,-78.677,-48.550,21.912,-6.012,-0.301,5.193,31.200,-16.350,-46.050
10.74,0,-79.032,-48.668,22.330,-5.926,-0.174,5.227,29.700,-15.150,-45.750
10.84,0,-79.263,-48.628,22.588,-5.934,-0.219,5.252,30.750,-15.000,-45.600
10.94,0,-79.464,-48.467,22.794,-5.926,-0.258,5.244,32.700,-16.350,-46.050
11.06,0,-79.876,-48.419,23.193,-5.891,-0.191,5.316,31.200,-15.900,-46.800
11.17,0,-80.487,-48.498,23.821,-5.922,-0.066,5.254,30.900,-17.850,-45.300
11.27,0,-81.620,-49.006,24.832,-5.621,0.125,5.084,30.750,-16.950,-45.150
11.38,0,-82.787,-48.961,25.826,-5.842,0.102,5.236,30.150,-18.750,-45.300
11.48,0,-83.359,-48.715,26.298,-5.916,0.162,5.182,31.050,-16.950,-45.900
11.58,0,-83.527,-48.854,26.606,-5.947,0.295,5.332,29.250,-18.900,-45.600
11.70,0,-83.533,-48.811,26.726,-6.057,0.240,5.254,30.150,-19.050,-45.000
11.81,0,-83.569,-48.610,26.765,-5.967,0.109,5.291,32.250,-18.150,-46.650
11.91,0,-83.627,-48.625,26.873,-5.984,0.254,5.361,29.400,-19.050,-44.250
12.01,0,-84.505,-48.298,27.525,-5.715,0.109,5.270,29.250,-19.650,-46.650
12.12,0,-85.451,-47.998,28.127,-5.766,0.328,5.389,30.300,-19.200,-46.350
12.22,0,-85.891,-47.916,28.352,-5.814,0.479,5.291,30.450,-21.750,-47.250
12.32,0,-85.780,-47.896,28.255,-5.912,0.393,5.395,29.550,-20.850,-46.350
12.43,0,-85.396,-47.908,27.998,-5.918,0.293,5.383,30.750,-21.600,-45.150
12.53,0,-84.897,-47.906,27.696,-5.945,0.316,5.355,30.150,-20.250,-45.300
12.64,0,-84.317,-47.903,27.323,-5.822,0.281,5.277,29.400,-17.850,-46.500
12.74,0,-84.002,-47.903,27.111,-6.031,0.131,5.625,28.500,-20.100,-45.150
12.85,0,-83.978,-47.772,27.099,-5.982,0.193,5.318,30.450,-19.800,-46.050
12.95,0,-84.080,-47.764,27.235,-5.863,0.256,5.377,30.750,-18.150,-46.350
13.06,0,-84.150,-47.714,27.366,-5.842,0.254,5.359,30.450,-17.850,-46.500
13.16,0,-84.227,-47.585,27.509,-5.969,0.240,5.277,28.950,-17.550,-47.250
13.27,0,-84.148,-47.603,27.563,-5.840,0.223,5.381,30.300,-18.450,-45.600
13.37,0,-83.862,-47.665,27.496,-5.898,0.168,5.381,30.750,-20.100,-45.900
13.48,0,-83.678,-47.667,27.522,-5.963,0.197,5.420,30.300,-18.150,-46.350
13.59,0,-83.705,-47.654,27.653,-6.035,0.053,5.365,30.300,-18.900,-45.900
13.69,0,-83.814,-47.763,27.771,-5.939,0.152,5.363,31.050,-18.450,-46.650
13.80,0,-83.817,-47.827,27.769,-5.932,0.203,5.381,30.000,-18.150,-45.900
13.91,0,-83.686,-47.827,27.644,-5.895,0.240,5.381,30.450,-18.300,-45.750
14.00,0,-83.570,-47.863,27.594,-5.877,0.180,5.383,30.150,-18.750,-45.750
14.12,0,-83.572,-47.847,27.683,-5.904,0.156,5.354,30.450,-19.050,-46.050
14.23,0,-83.486,-47.978,27.771,-5.971,0.217,5.354,30.150,-18.750,-45.300
14.33,0,-83.558,-48.001,27.951,-5.926,0.191,5.381,30.900,-18.300,-44.250
14.44,0,-83.652,-47.982,28.118,-5.924,0.211,5.305,30.750,-18.450,-46.650
14.54,0,-83.690,-47.839,28.304,-5.803,0.219,5.246,30.750,-18.450,-45.600
14.64,0,-83.601,-48.015,28.408,-5.961,0.229,5.350,29.250,-18.150,-45.900
14.75,0,-83.550,-48.012,28.398,-5.879,0.146,5.357,31.950,-18.300,-46.800
14.84,0,-83.503,-48.089,28.412,-5.928,0.189,5.332,31.050,-18.900,-46.650
14.95,0,-83.398,-48.081,28.303,-5.859,0.145,5.252,31.950,-17.550,-45.000
15.08,0,-83.068,-48.108,27.960,-5.936,0.123,5.330,31.800,-19.650,-44.850
15.17,0,-82.572,-48.230,27.572,-6.068,0.137,5.225,31.200,-18.300,-46.050
15.27,0,-81.884,-48.187,27.005,-5.965,-0.025,5.275,31.200,-19.050,-45.300
15.39,0,-80.829,-48.041,26.135,-5.842,-0.059,5.150,32.250,-19.200,-46.350
15.49,0,-78.829,-47.557,24.450,-5.803,-0.170,5.387,32.700,-15.150,-45.750
15.59,0,-76.374,-47.542,22.628,-6.029,-0.586,5.283,29.700,-14.850,-44.250
15.69,0,-73.685,-46.984,20.604,-5.826,-0.766,5.266,31.650,-12.900,-47.250
15.79,0,-70.558,-46.846,18.371,-5.832,-1.080,5.031,31.650,-11.400,-46.050
15.90,0,-67.012,-46.722,16.271,-5.861,-1.213,4.994,31.500,-10.050,-44.100
16.02,0,-63.495,-45.846,13.943,-6.127,-1.729,4.920,32.700,-7.800,-45.000
16.11,0,-59.432,-45.054,11.467,-5.830,-2.219,4.535,30.450,-3.150,-46.050
16.22,0,-54.310,-42.615,8.713,-5.471,-2.510,4.734,32.250,-0.750,-45.600
16.33,0,-48.533,-41.308,5.260,-5.961,-3.479,4.551,31.800,2.250,-43.350
16.43,0,-43.790,-39.070,2.861,-5.455,-3.625,4.313,31.950,6.750,-42.450
16.53,0,-38.141,-35.765,0.276,-6.141,-3.459,4.002,31.800,9.150,-42.300
16.65,0,-34.063,-31.416,0.347,-4.584,-5.783,4.240,28.800,15.750,-41.550
16.75,0,-29.331,-28.293,-1.418,-4.730,-5.904,3.449,27.750,20.100,-41.550
16.85,0,-26.006,-25.020,-1.064,-3.904,-6.258,3.225,25.050,21.600,-39.300
16.96,0,-22.904,-21.709,-0.762,-3.828,-5.775,2.969,24.150,25.200,-37.950
17.06,0,-19.719,-17.964,0.537,-3.582,-7.107,2.895,20.550,28.500,-38.550
17.17,0,-16.267,-14.747,1.417,-2.953,-7.334,2.570,20.250,30.150,-35.550
17.28,0,-13.334,-10.255,5.214,-1.834,-7.457,1.910,15.750,35.550,-36.300
17.38,0,-9.497,-6.641,7.137,-2.043,-8.047,1.793,13.050,35.100,-33.750
17.49,0,-5.880,-4.882,8.301,-0.859,-8.742,1.508,11.400,38.400,-32.100
17.60,0,-2.738,-3.240,8.684,-1.332,-8.035,0.531,8.400,40.650,-29.550
17.70,0,-0.041,-1.928,8.118,-0.887,-7.877,0.156,8.400,40.650,-27.000
17.80,0,1.825,-1.145,7.399,-1.014,-8.479,0.434,7.200,41.100,-24.750
17.91,0,1.777,-0.579,6.549,-1.102,-8.162,0.127,7.500,41.700,-24.600
18.01,0,1.440,-0.104,7.178,-0.734,-7.869,-0.215,6.300,41.250,-26.100
18.13,0,1.648,-0.080,6.771,-0.801,-8.061,-0.059,6.000,40.950,-24.900
18.23,0,1.709,0.133,6.853,-0.920,-8.193,-0.070,6.900,40.650,-25.200
18.34,0,1.601,0.168,6.888,-0.729,-8.092,-0.016,6.450,41.100,-25.800
18.43,0,1.418,0.160,6.727,-0.766,-8.150,0.129,6.450,41.100,-25.500
18.54,0,1.222,0.365,6.728,-0.861,-8.102,-0.080,7.950,41.100,-27.750
18.64,0,1.215,0.547,6.855,-0.732,-7.986,0.035,5.550,40.950,-26.100
18.75,0,1.348,0.544,7.029,-0.553,-8.361,0.125,4.500,41.250,-26.850
18.85,0,1.282,0.485,6.801,-0.672,-8.074,-0.016,5.250,42.150,-25.350
18.96,0,1.242,0.361,6.495,-0.807,-8.156,0.133,6.450,41.100,-26.250
19.07,0,1.183,0.293,6.104,-0.719,-8.078,0.133,6.300,42.450,-25.650
19.17,0,1.035,0.213,5.969,-0.689,-8.053,0.059,4.950,42.600,-27.000
19.26,0,1.010,-0.076,5.927,-0.729,-8.133,0.121,7.200,41.100,-26.250
19.38,0,1.066,-0.336,5.923,-0.625,-8.025,-0.008,6.300,39.750,-27.900
19.49,0,1.141,-0.512,5.800,-0.744,-8.172,0.088,6.150,42.600,-27.750
19.61,0,1.152,-0.560,5.558,-0.787,-8.146,0.059,6.450,40.650,-26.250
19.69,0,1.075,-0.610,5.415,-0.908,-7.977,-0.029,5.700,41.100,-26.250
19.80,0,1.012,-0.599,5.412,-1.004,-7.988,0.137,6.450,41.550,-26.550
19.91,0,0.903,-0.684,5.935,-0.605,-8.057,0.076,5.400,42.300,-28.050
20.01,0,0.839,-0.968,5.466,-1.062,-8.029,0.152,5.400,40.350,-27.300
20.12,0,0.846,-1.130,5.553,-0.775,-8.133,0.160,5.550,40.950,-28.650
20.23,0,0.863,-1.120,5.108,-0.900,-8.148,0.143,6.450,40.650,-28.050
20.33,0,0.869,-1.039,4.615,-0.926,-8.154,0.215,7.500,42.450,-26.100
20.43,0,0.919,-1.052,4.307,-0.814,-8.162,0.129,6.150,40.350,-25.500
20.53,0,0.952,-1.100,4.004,-0.998,-8.057,0.137,7.050,40.950,-27.150
20.66,0,0.958,-1.162,4.260,-0.781,-8.072,0.088,7.650,42.300,-26.550
20.75,0,0.936,-1.160,4.253,-0.893,-8.100,0.096,7.500,41.700,-26.850
20.87,0,0.898,-1.075,4.067,-0.941,-8.008,0.145,6.900,39.900,-26.250
20.96,0,0.843,-0.957,3.877,-0.912,-8.055,0.146,7.200,41.550,-29.250
21.07,0,0.811,-0.845,3.705,-0.893,-8.090,0.131,4.950,41.100,-27.000
21.18,0,0.850,-0.848,3.516,-0.783,-8.037,0.129,6.450,41.550,-27.750
21.27,0,0.892,-0.861,3.186,-0.938,-8.094,0.145,6.150,40.350,-27.300
