time,IMU#,roll,pitch,yaw,accelx,accely,accelz,compassx,compassy,compassz
0.10,0,0.513,-1.093,0.575,-0.418,-8.007,0.181,15.887,48.626,-9.296
0.20,0,0.518,-1.126,0.548,-0.359,-8.077,0.159,17.387,48.626,-9.296
0.30,0,0.464,-1.179,0.481,-0.359,-8.120,0.157,17.537,49.676,-9.146
0.42,0,0.413,-1.236,0.295,-0.406,-8.069,0.196,18.437,49.826,-9.296
0.52,0,0.431,-1.224,0.216,-0.393,-8.026,0.132,18.737,48.026,-9.896
0.62,0,0.442,-1.231,0.168,-0.457,-8.058,0.183,17.987,47.726,-7.946
0.72,0,0.437,-1.230,0.055,-0.502,-8.075,0.134,18.437,47.876,-8.546
0.83,0,0.539,-1.152,0.061,-0.549,-7.979,0.124,18.137,49.076,-8.996
0.94,0,0.684,-1.120,0.133,-0.387,-7.978,0.140,17.537,48.926,-9.446
1.05,0,0.707,-1.104,0.109,-0.387,-8.038,0.134,17.987,48.476,-8.396
1.15,0,0.707,-1.112,0.067,-0.398,-8.022,0.130,16.937,49.076,-9.296
1.25,0,0.725,-1.095,0.040,-0.414,-8.060,0.136,16.637,48.326,-7.796
1.35,0,0.730,-1.108,0.031,-0.363,-8.067,0.157,18.437,50.276,-9.296
1.46,0,0.690,-1.108,0.067,-0.334,-8.058,0.138,17.387,51.026,-8.996
1.57,0,0.584,-1.153,0.033,-0.404,-8.132,0.112,18.737,47.726,-9.146
1.67,0,0.257,-0.998,-0.152,-0.232,-8.272,0.083,17.387,50.576,-9.746
1.78,0,-0.706,-0.429,-0.829,-0.732,-8.163,0.448,17.987,49.226,-8.396
1.89,0,-2.321,0.677,-1.253,-0.744,-8.085,0.671,18.437,47.426,-12.296
1.98,0,-4.245,2.283,-1.309,-0.492,-8.106,0.835,19.038,46.079,-11.992
2.11,0,-6.305,3.990,-2.205,-0.836,-7.937,1.269,19.488,47.729,-16.492
2.20,0,-8.386,6.048,-2.662,-0.811,-8.028,1.728,18.730,45.320,-17.547
2.31,0,-10.369,8.515,-3.222,-0.703,-7.897,2.044,21.430,43.970,-19.947
2.41,0,-12.581,11.166,-4.549,-0.793,-7.718,2.562,18.888,43.976,-21.144
2.51,0,-14.996,14.241,-5.827,-0.639,-7.483,3.056,20.246,42.335,-25.344
2.62,0,-17.709,17.233,-7.791,-0.820,-7.290,3.522,19.950,41.739,-26.995
2.73,0,-20.570,20.110,-10.249,-0.633,-6.923,4.104,18.900,40.989,-29.545
2.84,0,-24.084,22.603,-13.191,-0.797,-6.579,4.751,21.149,35.888,-31.794
2.94,0,-27.584,25.032,-15.452,-0.730,-6.333,4.942,20.699,32.888,-34.644
3.05,0,-31.273,27.460,-17.940,-0.979,-5.956,5.345,20.409,31.694,-36.149
3.16,0,-35.037,29.730,-20.762,-0.811,-5.501,5.765,21.766,28.398,-38.553
3.26,0,-39.156,31.955,-24.039,-0.816,-5.134,6.050,22.816,25.998,-40.053
3.36,0,-43.625,34.217,-27.511,-1.002,-4.554,6.546,22.961,23.146,-41.699
3.46,0,-48.797,35.580,-31.360,-0.906,-3.913,6.853,22.661,19.696,-44.999
3.57,0,-54.265,36.087,-35.194,-1.488,-3.733,7.079,24.320,15.949,-45.155
3.69,0,-59.498,36.520,-38.598,-1.490,-2.964,7.329,24.184,11.152,-43.963
3.78,0,-64.922,36.917,-41.996,-1.680,-2.483,7.421,25.068,8.300,-44.404
3.89,0,-70.086,37.406,-45.383,-1.664,-1.667,7.462,26.718,5.150,-45.004
3.99,0,-74.416,37.974,-48.037,-1.646,-1.106,7.452,27.326,0.349,-45.907
4.10,0,-77.168,38.872,-49.418,-1.459,-0.747,7.663,26.596,-1.609,-45.610
4.22,0,-78.957,39.455,-50.297,-1.572,-0.778,7.929,25.246,-1.909,-45.760
4.31,0,-80.091,39.710,-50.876,-1.437,-0.880,7.923,25.996,-2.959,-46.810
4.41,0,-80.671,40.222,-51.388,-1.111,-0.860,7.966,25.996,-4.159,-47.560
4.52,0,-81.289,40.148,-51.790,-1.289,-0.747,7.858,25.231,-5.352,-46.504
4.62,0,-81.838,39.934,-52.088,-1.482,-0.599,7.860,25.681,-4.902,-45.004
4.73,0,-82.166,39.760,-52.328,-1.404,-0.351,7.942,25.681,-5.652,-45.754
4.85,0,-82.389,39.544,-52.669,-1.756,-0.347,7.960,24.331,-4.002,-45.604
4.95,0,-82.641,39.429,-52.977,-1.545,-0.274,7.905,25.981,-4.902,-45.754
5.05,0,-82.763,39.721,-52.999,-1.537,-0.530,7.739,24.181,-4.902,-47.254
5.15,0,-82.557,40.040,-52.969,-1.443,-0.505,7.843,24.331,-6.252,-45.904
5.27,0,-82.431,40.356,-53.080,-1.441,-0.554,8.157,24.781,-5.052,-46.654
5.36,0,-82.651,40.487,-53.305,-1.312,-0.562,7.942,24.481,-4.602,-46.504
5.48,0,-82.963,40.233,-53.690,-1.775,-0.237,7.909,24.181,-4.902,-46.054
5.58,0,-83.530,40.774,-53.950,-1.209,-0.329,7.946,24.331,-5.502,-46.654
5.69,0,-84.034,40.846,-54.332,-1.287,-0.233,8.017,22.831,-7.002,-46.354
5.79,0,-84.750,40.307,-54.981,-1.670,-0.206,8.032,24.931,-6.852,-46.504
5.90,0,-85.513,40.184,-55.653,-1.363,-0.083,7.942,24.331,-6.702,-45.604
5.99,0,-86.180,39.945,-56.236,-1.473,0.001,7.823,25.831,-7.002,-45.904
6.10,0,-86.180,39.595,-56.242,-1.648,0.040,7.812,25.231,-7.302,-46.804
6.21,0,-85.757,39.851,-56.024,-1.684,-0.056,7.979,27.481,-7.302,-45.754
6.31,0,-85.712,39.519,-56.010,-1.641,-0.042,8.038,24.481,-5.352,-46.504
6.42,0,-86.132,39.456,-56.336,-1.576,-0.050,7.862,25.531,-6.252,-45.604
6.53,0,-86.374,39.097,-56.524,-1.582,-0.048,7.868,25.532,-6.703,-45.154
6.63,0,-86.522,39.217,-56.734,-1.436,0.007,7.972,24.932,-7.303,-46.504
6.73,0,-86.607,39.900,-56.856,-1.322,0.022,7.888,26.282,-6.703,-46.354
6.83,0,-86.538,39.907,-56.797,-1.535,-0.017,8.040,24.332,-6.253,-46.354
6.94,0,-86.549,39.925,-56.777,-1.355,-0.056,7.983,25.532,-7.003,-46.654
7.05,0,-86.584,39.833,-56.739,-1.580,-0.009,7.845,25.682,-6.853,-46.504
7.16,0,-86.628,39.886,-56.778,-1.551,-0.122,8.038,25.082,-7.753,-46.354
7.27,0,-86.964,39.834,-56.905,-1.506,0.005,7.933,25.832,-6.703,-47.104
7.36,0,-87.381,39.922,-57.144,-1.539,0.167,7.921,24.182,-9.103,-43.954
7.48,0,-87.578,39.918,-57.008,-1.557,0.306,7.896,25.082,-7.453,-45.154
7.58,0,-87.530,40.141,-56.724,-1.240,0.056,7.964,25.232,-8.803,-46.504
7.67,0,-87.651,39.950,-56.759,-1.447,0.099,8.019,23.432,-8.053,-45.754
7.79,0,-87.923,39.909,-57.007,-1.453,0.114,7.872,25.532,-9.703,-45.904
7.90,0,-88.019,40.066,-57.123,-1.480,0.138,7.940,24.932,-8.803,-46.054
8.00,0,-88.020,40.071,-57.026,-1.424,0.136,7.956,23.732,-9.103,-45.754
8.10,0,-87.963,40.192,-56.977,-1.467,0.118,7.974,24.932,-8.803,-46.054
8.20,0,-88.072,40.382,-56.969,-1.346,0.153,8.103,25.082,-7.753,-45.604
8.31,0,-88.453,40.367,-57.065,-1.354,0.210,8.062,24.332,-8.203,-45.604
8.42,0,-88.674,40.325,-57.232,-1.215,0.251,7.856,24.332,-7.753,-45.154
8.52,0,-88.368,39.811,-57.021,-1.512,0.073,8.067,26.582,-7.003,-44.404
8.63,0,-87.954,40.034,-56.752,-1.447,0.101,7.997,24.932,-8.803,-45.754
8.73,0,-87.835,40.220,-56.775,-1.357,0.040,7.989,23.432,-9.103,-46.054
8.84,0,-87.956,40.366,-57.039,-1.572,0.130,7.909,24.482,-7.603,-44.254
8.94,0,-88.031,40.516,-57.226,-1.223,0.175,7.985,25.232,-8.803,-45.304
9.06,0,-87.980,40.360,-57.208,-1.344,0.101,7.995,23.582,-9.403,-45.904
9.16,0,-87.935,40.272,-57.215,-1.369,0.146,8.003,25.232,-8.353,-46.054
9.26,0,-87.969,40.151,-57.235,-1.463,0.140,7.944,24.332,-7.453,-46.654
9.37,0,-87.751,39.997,-57.028,-1.277,0.251,7.970,24.032,-7.453,-46.354
9.47,0,-86.944,39.710,-56.549,-1.594,0.167,7.876,23.282,-7.453,-45.904
9.59,0,-85.556,39.569,-55.753,-1.504,0.026,7.780,25.082,-7.003,-45.154
9.69,0,-83.429,39.486,-54.389,-1.676,-0.247,7.849,25.082,-4.753,-45.604
9.79,0,-80.775,39.455,-52.544,-1.490,-0.353,8.011,24.784,-2.804,-45.154
9.90,0,-77.784,39.171,-50.164,-1.305,-0.933,8.013,24.184,-1.454,-46.054
10.00,0,-74.558,38.438,-47.654,-1.492,-1.394,7.483,25.986,0.946,-46.055
10.12,0,-70.769,37.733,-44.838,-1.521,-1.821,7.296,26.286,2.596,-45.605
10.22,0,-66.051,37.049,-41.556,-1.500,-2.229,7.294,23.739,4.696,-45.006
10.31,0,-60.992,35.664,-38.127,-1.359,-2.632,7.200,25.839,10.246,-43.356
10.42,0,-55.048,32.947,-34.204,-1.906,-3.310,6.933,26.457,15.048,-43.214
10.53,0,-49.189,30.531,-30.501,-1.666,-4.376,6.935,25.108,17.598,-42.314
10.64,0,-44.684,28.099,-28.247,-1.627,-4.878,6.462,25.244,22.394,-39.456
10.74,0,-41.387,26.374,-26.734,-1.609,-5.132,6.265,25.992,24.343,-38.405
10.84,0,-38.050,25.127,-24.685,-1.574,-5.532,5.681,25.692,26.593,-37.955
10.95,0,-34.217,23.674,-22.875,-1.437,-5.790,5.435,25.999,29.747,-35.108
11.06,0,-29.777,23.128,-20.801,-1.234,-6.157,5.446,24.499,33.197,-33.308
11.16,0,-26.053,22.498,-19.141,-0.877,-6.638,4.927,22.997,35.146,-31.807
11.26,0,-22.893,21.490,-17.508,-0.717,-6.800,4.210,21.479,35.583,-29.248
11.37,0,-20.029,19.682,-16.049,-0.805,-6.915,3.864,21.179,39.033,-28.498
11.48,0,-16.339,18.325,-12.687,-0.324,-7.261,3.503,19.521,40.377,-27.145
11.58,0,-13.059,16.055,-9.718,-0.322,-7.558,3.173,18.921,43.677,-23.695
11.69,0,-9.716,13.336,-5.599,0.119,-7.647,2.427,17.570,45.325,-23.095
11.80,0,-6.174,10.735,-1.877,0.283,-7.849,2.126,15.317,45.033,-20.838
11.90,0,-3.592,7.761,0.241,0.008,-8.038,1.614,15.167,49.083,-18.138
12.00,0,-1.433,4.581,1.945,-0.063,-8.179,0.921,16.068,48.923,-14.245
12.10,0,0.400,2.112,3.268,0.049,-8.054,0.642,14.867,49.073,-13.043
12.21,0,1.068,0.609,4.278,0.020,-8.255,0.521,14.867,51.023,-10.343
12.31,0,0.880,0.094,5.418,0.074,-8.038,0.021,14.567,51.323,-10.343
12.42,0,0.502,-0.162,4.438,-0.219,-8.028,0.274,15.767,49.673,-9.893
12.54,0,0.374,-0.412,4.205,-0.398,-8.087,0.333,16.667,49.373,-9.293
12.64,0,0.368,-0.480,4.300,-0.395,-7.958,0.106,16.217,48.623,-10.793
12.74,0,0.151,-0.738,4.486,-0.270,-8.083,0.171,16.667,49.073,-9.293
12.85,0,-0.068,-0.721,4.747,-0.283,-8.036,0.132,16.217,49.823,-10.793
12.95,0,-0.077,-0.882,4.862,-0.281,-8.015,0.140,16.217,49.823,-8.993
13.07,0,0.157,-1.124,4.801,-0.322,-8.013,0.151,15.467,49.373,-11.843
13.16,0,0.406,-1.183,4.645,-0.385,-8.046,0.130,17.417,49.373,-10.043
13.27,0,0.550,-1.081,4.363,-0.389,-7.985,0.183,16.217,48.323,-9.293
13.37,0,0.634,-1.065,4.308,-0.330,-8.030,0.134,16.817,49.223,-10.643
13.47,0,0.665,-1.052,4.297,-0.355,-8.038,0.198,15.467,49.073,-9.743
13.58,0,0.605,-0.933,4.459,-0.244,-8.101,0.206,15.917,47.873,-9.743
13.69,0,0.542,-0.836,4.551,-0.346,-7.995,0.202,16.517,48.923,-9.893
13.80,0,0.549,-0.805,4.905,-0.178,-8.050,0.136,16.217,48.623,-10.793
13.90,0,0.619,-0.835,5.029,-0.191,-8.030,0.132,17.567,48.473,-9.893
14.00,0,0.702,-0.845,4.987,-0.273,-8.065,0.114,17.567,50.423,-12.443
14.10,0,0.778,-0.861,4.999,-0.234,-8.038,0.151,15.767,49.223,-9.443
14.21,0,0.822,-0.876,5.038,-0.187,-8.077,0.171,15.467,49.073,-10.043
14.32,0,0.823,-0.848,4.983,-0.381,-7.983,0.144,14.717,48.473,-10.193
14.44,0,0.804,-0.852,5.211,-0.213,-8.134,0.167,15.167,47.873,-8.993
14.53,0,0.803,-0.837,5.392,-0.109,-8.058,0.106,16.217,49.373,-10.793
14.64,0,0.781,-0.797,5.365,-0.273,-8.067,0.144,16.967,50.273,-11.093
14.74,0,0.801,-0.781,5.317,-0.299,-8.030,0.161,17.267,49.973,-10.193
14.85,0,0.826,-0.780,5.324,-0.174,-8.056,0.126,15.317,48.473,-11.393
14.97,0,0.837,-0.764,5.257,-0.320,-8.001,0.155,16.517,49.673,-9.143
15.07,0,0.875,-0.747,5.202,-0.271,-7.987,0.161,16.067,49.223,-9.143
15.17,0,0.901,-0.763,5.160,-0.324,-8.001,0.173,15.917,47.423,-10.043
15.27,0,0.910,-0.750,5.166,-0.264,-8.036,0.161,16.067,49.223,-11.393
15.37,0,0.937,-0.739,5.287,-0.227,-8.056,0.187,16.517,48.473,-10.643
15.48,0,0.976,-0.687,5.273,-0.195,-8.017,0.073,17.570,49.221,-10.202
15.59,0,0.980,-0.609,5.197,-0.197,-8.077,0.142,16.670,49.071,-10.052
15.69,0,0.986,-0.583,5.161,-0.148,-8.052,0.122,16.220,46.371,-9.002
15.79,0,0.952,-0.655,4.945,-0.328,-8.056,0.142,15.162,49.372,-10.027
15.91,0,0.993,-0.780,4.977,-0.219,-8.065,0.163,16.662,50.272,-10.327
16.02,0,0.997,-0.823,4.998,-0.316,-8.022,0.161,16.062,49.222,-10.927
16.12,0,0.929,-0.794,4.995,-0.232,-8.009,0.175,16.812,49.672,-9.427
16.22,0,0.881,-0.750,5.029,-0.225,-8.071,0.163,15.912,49.822,-9.727
16.33,0,0.781,-0.806,5.001,-0.182,-8.062,0.108,15.762,49.222,-10.177
16.43,0,0.594,-0.862,4.697,-0.510,-8.063,0.220,16.662,49.372,-11.077
16.53,0,0.611,-0.850,4.846,-0.361,-8.063,0.134,15.912,49.822,-10.777
16.63,0,0.767,-0.784,5.060,-0.281,-8.034,0.140,16.662,49.822,-11.827
16.74,0,0.858,-0.699,5.195,-0.330,-7.890,0.104,16.512,49.672,-10.177
16.86,0,0.897,-0.656,5.316,-0.283,-7.960,0.093,16.062,49.222,-11.377
16.96,0,0.971,-0.693,5.412,-0.309,-8.040,0.132,15.312,49.672,-10.177
17.06,0,1.038,-0.751,5.379,-0.268,-8.032,0.153,16.212,50.272,-11.077
17.16,0,1.072,-0.770,5.350,-0.248,-8.142,0.138,16.212,49.822,-10.027
