time,IMU#,roll,pitch,yaw,accelx,accely,accelz,compassx,compassy,compassz
0.07,0,0.105,-1.383,0.265,-2.035,-7.826,1.055,15.300,31.950,-36.000
0.18,0,0.162,-1.305,0.350,-1.975,-7.801,0.965,15.150,31.800,-36.150
0.28,0,0.315,-1.166,0.402,-2.068,-7.793,0.973,15.000,33.900,-37.500
0.39,0,0.436,-1.069,0.526,-2.086,-8.014,1.037,15.000,33.150,-37.500
0.49,0,0.205,-1.033,0.397,-2.203,-7.814,0.977,15.900,33.000,-36.150
0.59,0,-0.049,-1.076,0.628,-1.969,-7.799,0.994,14.400,32.250,-37.650
0.71,0,-0.106,-0.980,0.934,-2.004,-7.861,0.959,13.950,32.550,-37.200
0.81,0,0.105,-0.941,1.120,-1.898,-7.863,1.029,14.700,34.500,-37.200
0.93,0,0.319,-0.914,1.182,-1.971,-7.801,1.012,13.650,33.750,-38.400
1.03,0,0.376,-0.895,1.094,-1.996,-7.838,1.020,14.550,33.600,-36.300
1.13,0,0.323,-0.863,0.988,-1.969,-7.809,1.006,14.400,33.000,-36.150
1.23,0,0.306,-0.825,0.948,-1.967,-7.824,0.973,15.150,33.450,-37.650
1.33,0,0.337,-0.772,0.927,-2.018,-7.805,0.930,14.400,32.550,-36.900
1.45,0,0.372,-0.771,1.047,-1.932,-7.861,0.992,15.000,33.150,-37.500
1.55,0,0.345,-0.802,1.178,-1.896,-7.838,0.932,14.400,32.550,-36.900
1.65,0,0.247,-0.845,1.126,-1.916,-7.750,0.939,14.700,33.000,-36.900
1.75,0,0.208,-0.818,1.033,-1.924,-7.820,1.027,14.700,32.550,-36.900
1.88,0,0.192,-0.742,0.932,-1.914,-7.832,1.062,14.550,31.650,-37.050
1.96,0,0.185,-0.728,0.827,-1.994,-7.871,1.010,15.450,33.000,-37.200
2.06,0,0.210,-0.701,0.890,-1.941,-7.822,1.004,13.200,34.950,-37.200
2.18,0,0.222,-0.722,0.948,-1.871,-7.857,1.008,13.950,32.250,-37.650
2.28,0,0.227,-0.751,0.937,-1.924,-7.848,1.010,13.950,33.450,-36.600
2.39,0,0.231,-0.718,0.907,-1.977,-7.889,0.955,15.000,33.900,-35.550
2.50,0,0.226,-0.673,0.879,-1.941,-7.820,0.971,13.650,33.750,-37.650
2.60,0,0.172,-0.654,0.778,-1.961,-7.863,1.064,11.700,32.550,-36.900
2.71,0,0.083,-0.614,0.701,-1.947,-7.859,1.096,13.950,32.550,-36.900
2.81,0,-0.076,-0.546,0.623,-1.990,-7.842,1.025,13.950,33.000,-38.400
2.92,0,-0.266,-0.494,0.484,-1.900,-7.816,1.094,16.200,31.800,-37.200
3.01,0,-0.501,-0.533,0.349,-1.945,-7.814,1.113,13.200,33.450,-37.650
3.14,0,-0.767,-0.529,0.328,-1.963,-7.828,1.150,15.450,33.450,-38.700
3.24,0,-0.997,-0.490,0.316,-1.930,-7.830,1.203,13.800,32.850,-38.250
3.34,0,-1.238,-0.372,0.384,-2.027,-7.807,1.201,14.550,32.400,-38.550
3.45,0,-1.588,-0.199,0.522,-1.893,-7.811,1.248,14.250,33.600,-38.550
3.55,0,-1.960,-0.080,0.690,-1.830,-7.770,1.311,13.950,33.000,-39.150
3.65,0,-2.253,0.041,0.840,-1.824,-7.836,1.316,13.800,33.150,-39.600
3.76,0,-2.411,0.163,1.001,-1.908,-7.811,1.383,13.950,31.500,-39.900
3.88,0,-2.430,0.276,1.116,-1.752,-7.766,1.371,13.200,32.550,-38.700
3.97,0,-2.377,0.294,1.074,-1.828,-7.783,1.367,14.250,33.150,-39.600
4.07,0,-2.314,0.312,0.957,-1.875,-7.746,1.404,13.500,32.850,-41.100
4.18,0,-2.252,0.322,0.882,-1.875,-7.834,1.408,13.050,33.600,-39.600
4.29,0,-2.297,0.371,0.853,-1.912,-7.947,1.391,13.650,33.750,-38.700
4.39,0,-2.625,0.540,0.824,-1.848,-7.953,1.357,12.750,32.850,-39.000
4.50,0,-3.282,0.869,0.714,-1.881,-7.943,1.457,13.200,33.000,-39.150
4.60,0,-3.970,1.596,1.244,-1.904,-7.994,1.504,14.550,32.850,-41.100
4.70,0,-5.575,2.408,1.892,-1.592,-7.943,1.873,12.000,31.950,-42.300
4.82,0,-8.141,3.340,2.184,-1.488,-7.914,2.002,11.550,31.200,-44.400
4.92,0,-10.943,4.216,2.306,-1.691,-7.535,2.436,10.650,31.800,-46.800
5.02,0,-13.611,5.059,2.543,-1.484,-7.270,2.785,10.500,31.200,-49.950
5.14,0,-16.064,5.843,2.322,-1.701,-7.246,3.129,9.450,29.550,-51.300
5.24,0,-18.511,6.981,2.460,-1.021,-7.242,3.609,7.650,28.800,-53.100
5.34,0,-21.172,7.803,2.159,-0.805,-6.773,4.094,8.400,25.650,-54.900
5.45,0,-23.791,7.952,1.460,-1.062,-6.654,4.307,8.250,25.050,-57.750
5.55,0,-26.244,7.759,0.526,-1.020,-6.523,4.461,7.500,22.800,-57.300
5.65,0,-28.938,7.828,-0.418,-1.020,-6.311,4.773,7.800,22.800,-59.550
5.75,0,-31.704,7.445,-1.712,-0.955,-6.098,4.850,8.400,20.550,-61.500
5.88,0,-34.332,6.642,-3.048,-1.074,-5.801,5.342,7.500,18.900,-62.850
5.97,0,-36.720,5.821,-4.275,-1.480,-5.510,5.551,9.450,17.850,-61.500
6.09,0,-39.130,5.603,-4.899,-1.441,-5.400,5.941,10.950,14.100,-63.000
6.19,0,-41.724,5.383,-5.295,-1.557,-5.211,6.297,11.250,13.050,-63.900
6.29,0,-44.365,5.555,-5.215,-1.393,-4.789,6.277,11.250,10.800,-65.100
6.39,0,-47.193,5.977,-4.743,-1.307,-4.352,6.387,9.900,9.000,-67.800
6.51,0,-49.736,6.067,-4.223,-1.256,-4.168,6.932,10.050,6.450,-69.450
6.60,0,-51.500,5.710,-4.187,-1.047,-3.865,6.908,9.150,5.850,-68.250
6.70,0,-53.039,5.897,-4.502,-1.379,-3.797,7.033,8.550,4.200,-69.450
6.82,0,-54.719,6.186,-4.626,-0.916,-3.600,7.045,9.900,2.400,-70.800
6.92,0,-56.302,6.410,-4.706,-1.268,-3.289,7.289,8.700,0.150,-70.050
7.02,0,-57.418,7.098,-4.668,-0.705,-3.125,7.293,8.250,-0.300,-70.650
7.14,0,-58.215,7.347,-4.639,-0.971,-2.971,7.242,7.650,0.450,-70.800
7.24,0,-58.685,7.431,-4.485,-0.818,-3.127,7.355,6.750,0.000,-70.950
7.34,0,-59.174,7.479,-4.431,-0.781,-3.156,7.402,8.250,-0.750,-72.750
7.46,0,-59.852,7.354,-4.536,-0.807,-2.789,7.492,9.450,-2.400,-71.850
7.56,0,-60.334,7.777,-4.531,-0.502,-2.842,7.473,9.300,-0.300,-71.250
7.66,0,-60.285,7.719,-4.638,-0.758,-2.859,7.625,6.300,-1.050,-72.450
7.76,0,-60.378,7.732,-5.037,-0.695,-3.172,7.605,8.550,-0.300,-71.700
7.86,0,-60.985,7.730,-5.331,-0.545,-2.992,7.547,7.500,-1.050,-70.950
7.98,0,-61.704,7.757,-4.916,-0.904,-2.785,7.326,5.400,-3.600,-72.300
8.09,0,-62.084,7.790,-4.435,-1.041,-2.471,7.689,6.150,-2.850,-72.300
8.19,0,-63.485,7.961,-4.640,-0.762,-2.467,7.461,4.650,-3.150,-71.550
8.29,0,-65.743,7.835,-5.418,-0.609,-2.172,7.686,4.950,-6.750,-72.300
8.39,0,-67.748,7.397,-6.495,-0.959,-1.484,7.535,4.950,-7.800,-73.350
8.51,0,-68.129,7.234,-6.949,-0.637,-1.752,7.646,5.250,-8.400,-72.000
8.60,0,-67.498,7.512,-7.200,-0.346,-2.084,7.859,5.550,-8.100,-72.750
8.71,0,-67.201,7.588,-7.425,-0.822,-2.154,7.535,6.300,-7.200,-72.000
8.82,0,-67.144,7.603,-7.374,-0.566,-2.045,7.742,5.550,-8.850,-71.700
8.92,0,-67.184,7.963,-7.178,-0.652,-2.115,7.824,5.700,-7.800,-72.900
9.03,0,-67.366,8.224,-7.124,-0.443,-1.809,7.646,4.800,-6.900,-72.450
9.13,0,-67.466,8.376,-7.179,-0.465,-1.910,7.734,5.700,-7.500,-72.600
9.25,0,-67.348,8.265,-7.364,-0.637,-1.947,7.723,5.550,-7.650,-72.450
9.35,0,-67.018,8.237,-7.771,-0.689,-1.936,7.861,6.450,-6.750,-72.600
9.47,0,-66.486,8.607,-8.120,-0.438,-1.973,7.816,3.900,-5.850,-72.600
9.56,0,-65.720,8.998,-8.088,-0.490,-1.965,7.877,5.700,-5.100,-72.900
9.66,0,-64.548,9.303,-7.733,-0.408,-2.289,7.906,4.800,-5.700,-73.500
9.77,0,-62.366,9.581,-7.249,-0.932,-2.156,7.451,6.000,-1.500,-73.200
9.88,0,-58.856,10.572,-6.438,-0.330,-2.752,7.281,4.650,0.450,-71.850
9.97,0,-54.157,11.145,-5.273,-0.730,-3.367,7.100,5.400,4.050,-71.550
10.09,0,-49.011,11.700,-3.718,-0.387,-4.078,6.656,3.300,8.400,-69.900
10.19,0,-43.806,11.416,-2.056,-0.379,-4.648,6.121,5.700,10.950,-68.250
10.29,0,-38.150,10.918,-0.441,-0.270,-5.164,5.430,6.450,15.150,-66.750
10.41,0,-31.542,9.876,0.798,-0.629,-6.166,5.168,6.450,19.800,-62.250
10.51,0,-24.615,8.398,1.933,-0.623,-6.789,4.520,7.200,24.900,-57.900
10.61,0,-18.458,6.022,2.224,-1.193,-7.396,3.451,10.050,26.550,-52.950
10.71,0,-12.969,4.231,3.165,-1.262,-7.566,2.732,10.200,29.850,-49.350
10.83,0,-7.931,2.688,3.839,-1.631,-8.154,2.145,12.000,30.900,-45.150
10.93,0,-3.588,1.599,4.291,-1.463,-7.994,1.623,13.500,31.950,-41.850
11.03,0,-1.116,0.814,4.261,-2.180,-8.252,0.982,11.700,33.750,-38.700
11.13,0,0.165,0.332,4.581,-1.834,-8.051,0.977,13.500,34.800,-38.550
11.25,0,1.052,-0.380,4.623,-1.697,-8.316,0.596,13.500,34.350,-37.800
11.35,0,1.639,-0.741,4.168,-2.311,-7.668,0.918,14.250,33.600,-36.750
11.46,0,2.089,-0.748,5.676,-1.838,-8.486,0.637,13.050,33.600,-37.050
11.57,0,1.912,-1.003,6.553,-1.242,-7.621,0.438,12.300,33.150,-37.800
11.67,0,1.074,-1.869,4.825,-2.168,-7.748,0.547,14.400,33.000,-37.200
11.77,0,0.725,-2.336,3.630,-2.084,-7.707,1.141,13.650,31.050,-37.650
11.87,0,1.247,-2.280,3.260,-1.664,-7.637,0.684,15.300,31.950,-37.050
11.98,0,1.617,-2.657,1.615,-2.705,-7.859,0.924,15.000,32.850,-36.750
12.08,0,2.013,-1.731,1.772,-2.217,-7.682,0.791,14.400,32.250,-36.150
12.19,0,2.141,-2.138,2.187,-1.705,-8.098,0.701,15.000,32.850,-36.000
12.30,0,1.724,-1.692,1.154,-2.617,-7.613,0.713,16.050,33.900,-35.550
12.40,0,1.619,-1.747,1.584,-1.785,-7.754,0.824,13.800,33.150,-36.300
12.50,0,1.399,-1.860,1.326,-1.873,-7.945,0.785,16.050,33.600,-35.550
12.60,0,1.304,-1.528,0.695,-2.146,-7.795,0.770,15.450,33.000,-36.600
12.72,0,1.360,-1.350,0.680,-2.080,-7.873,0.992,16.650,32.250,-36.900
12.83,0,1.446,-1.331,0.554,-2.104,-7.914,0.941,15.150,33.750,-36.600
12.93,0,1.400,-1.385,0.421,-2.033,-7.832,0.893,16.050,33.150,-34.950
13.03,0,1.046,-1.644,-0.220,-2.193,-7.752,1.004,15.450,33.450,-35.100
13.13,0,0.611,-1.888,-0.484,-1.963,-7.791,1.012,15.300,32.400,-35.550
13.24,0,0.293,-2.030,-1.008,-2.332,-7.588,0.924,15.450,32.550,-36.150
13.35,0,0.513,-2.084,-1.049,-1.932,-7.611,1.023,14.700,34.200,-36.600
13.45,0,1.139,-1.820,-1.111,-2.293,-7.922,0.770,15.150,33.450,-36.150
13.55,0,1.692,-1.517,-0.864,-2.086,-7.912,0.809,15.300,33.900,-34.500
13.67,0,1.552,-1.315,-0.549,-1.834,-7.961,1.178,13.950,34.200,-36.150
13.77,0,1.116,-1.071,-0.107,-1.900,-7.693,0.691,13.950,31.800,-35.400
13.87,0,0.797,-1.503,0.041,-1.723,-7.963,0.844,14.700,32.550,-37.650
13.99,0,0.678,-1.260,-0.422,-2.395,-7.934,0.969,14.400,33.750,-36.600
14.09,0,0.691,-0.619,0.328,-1.838,-7.811,0.770,13.200,33.450,-37.650
14.19,0,0.653,-0.588,0.524,-1.832,-8.021,0.879,15.000,33.600,-37.500
14.30,0,0.419,-0.648,0.253,-1.928,-7.922,1.045,13.950,32.550,-36.150
14.40,0,0.350,-0.773,-0.014,-2.012,-7.727,1.199,13.200,33.000,-36.900
14.52,0,0.422,-0.826,0.227,-1.904,-7.711,0.957,13.950,33.450,-36.150
14.62,0,0.588,-0.919,0.030,-2.176,-7.885,1.113,14.700,33.450,-37.200
14.72,0,0.817,-0.835,0.351,-1.914,-7.787,0.990,15.900,33.000,-36.600
14.82,0,0.853,-0.907,0.476,-2.115,-7.887,1.033,14.700,32.550,-36.600
14.93,0,0.671,-1.079,0.529,-2.041,-7.791,0.994,15.300,32.850,-36.000
15.03,0,0.325,-1.306,0.521,-2.113,-7.768,1.002,15.150,33.450,-36.600
15.13,0,0.048,-1.441,0.920,-1.955,-7.609,0.859,14.700,32.250,-37.200
15.26,0,0.043,-1.536,1.226,-1.857,-7.695,0.822,14.400,33.450,-37.200
15.36,0,0.548,-1.545,1.158,-2.092,-7.875,1.021,15.150,32.250,-36.900
15.46,0,1.280,-1.290,1.436,-1.855,-7.877,0.914,14.700,34.200,-36.900
15.56,0,1.705,-1.209,1.239,-2.035,-7.912,0.834,15.300,33.900,-37.050
15.67,0,1.651,-1.099,1.201,-2.043,-7.934,0.871,15.150,34.200,-36.900
15.77,0,1.505,-0.976,1.311,-1.945,-7.895,0.795,13.950,33.750,-36.600
15.89,0,1.502,-0.958,1.301,-1.822,-7.926,0.762,16.050,33.150,-37.050
15.99,0,1.591,-1.025,1.018,-1.959,-7.900,0.842,14.400,32.250,-35.850
16.09,0,1.682,-1.025,0.916,-1.895,-7.809,0.828,15.300,33.150,-36.000
16.19,0,1.710,-1.027,0.615,-2.004,-7.863,0.906,15.300,32.400,-35.550
16.31,0,1.711,-0.954,0.515,-1.963,-7.787,0.820,15.300,32.400,-36.300
16.41,0,1.753,-0.840,0.386,-1.990,-7.799,0.842,15.300,33.900,-35.250
16.51,0,1.804,-0.762,0.413,-1.979,-7.811,0.775,13.800,34.350,-36.750
16.61,0,1.834,-0.755,0.557,-1.898,-7.828,0.828,14.550,31.650,-36.300
