time,IMU#,roll,pitch,yaw,accelx,accely,accelz,compassx,compassy,compassz
0.05,1,-0.135,0.206,-1.473,2258.000,7806.000,880.000,0.000,-54.000,-25.050
0.16,1,-0.114,0.214,-1.483,2324.000,7812.000,904.000,0.450,-54.150,-23.850
0.26,1,-0.098,0.204,-1.535,2312.000,7802.000,894.000,0.750,-54.000,-23.250
0.35,1,-0.103,0.176,-1.564,2242.000,7834.000,886.000,0.000,-54.000,-23.250
0.46,1,-0.102,0.208,-1.519,2286.000,7864.000,922.000,0.300,-53.100,-22.950
0.57,1,-0.124,0.150,-1.524,2306.000,7834.000,900.000,-0.300,-54.000,-23.700
0.67,1,-0.253,0.157,-1.339,2340.000,7946.000,1016.000,0.150,-53.400,-22.650
0.78,1,-0.521,-0.027,-1.221,2252.000,7818.000,966.000,-0.150,-53.700,-23.400
0.89,1,-0.827,-0.194,-1.298,2274.000,7666.000,838.000,0.450,-55.350,-23.850
1.00,1,-0.800,-0.279,-1.474,2258.000,7786.000,838.000,0.300,-52.350,-25.500
1.09,1,-0.559,-0.282,-1.560,2306.000,7806.000,1072.000,-0.300,-54.000,-24.750
1.20,1,-0.464,-0.267,-1.677,2358.000,7846.000,1016.000,-0.150,-52.200,-24.900
1.31,1,-0.412,-0.333,-1.785,2276.000,7792.000,980.000,-0.300,-54.000,-22.950
1.40,1,-0.344,-0.320,-1.860,2286.000,7826.000,830.000,0.000,-54.750,-24.300
1.51,1,-0.258,-0.186,-1.851,2356.000,7866.000,922.000,-0.900,-52.950,-22.650
1.62,1,-0.180,-0.063,-1.811,2342.000,7836.000,1014.000,0.900,-54.900,-23.850
1.72,1,-0.166,-0.049,-1.791,2344.000,7848.000,944.000,-0.300,-54.750,-24.000
1.83,1,-0.192,-0.093,-1.803,2280.000,7830.000,850.000,1.050,-52.350,-23.250
1.93,1,-0.203,-0.092,-1.835,2326.000,7810.000,868.000,1.050,-52.800,-24.000
2.04,1,-0.157,-0.084,-1.904,2302.000,7804.000,916.000,-1.800,-54.300,-24.000
2.13,1,-0.142,-0.065,-1.972,2294.000,7796.000,930.000,-1.650,-52.500,-23.400
2.25,1,-0.133,-0.069,-2.039,2280.000,7810.000,918.000,-0.900,-52.200,-24.150
2.34,1,-0.120,-0.084,-2.095,2294.000,7772.000,934.000,-0.450,-53.700,-24.150
2.47,1,-0.077,-0.150,-2.131,2306.000,7794.000,874.000,0.900,-53.400,-23.850
2.56,1,-0.018,-0.160,-2.213,2298.000,7832.000,890.000,-2.400,-53.400,-22.650
2.67,1,0.015,-0.125,-2.251,2324.000,7802.000,914.000,0.750,-54.300,-24.300
2.77,1,-0.002,-0.094,-2.276,2344.000,7816.000,910.000,0.300,-53.550,-23.250
2.87,1,-0.035,-0.061,-2.281,2312.000,7852.000,834.000,-0.450,-53.700,-22.650
2.98,1,-0.009,-0.007,-2.246,2290.000,7792.000,934.000,-0.450,-53.700,-23.400
3.08,1,-0.011,0.094,-2.278,2320.000,7744.000,914.000,-1.050,-52.350,-24.000
3.20,1,-0.041,0.147,-2.326,2322.000,7828.000,896.000,0.300,-53.550,-22.950
3.31,1,-0.049,0.078,-2.379,2320.000,7782.000,908.000,-0.450,-54.900,-23.100
3.39,1,-0.058,-0.068,-2.472,2348.000,7864.000,914.000,-1.050,-54.750,-23.700
3.50,1,-0.120,-0.130,-2.488,2302.000,7810.000,930.000,-0.300,-53.100,-22.950
3.61,1,-0.258,-0.221,-2.585,2242.000,7846.000,1040.000,-0.150,-52.200,-23.100
3.72,1,-0.592,-0.328,-2.795,2274.000,7862.000,1086.000,-1.650,-54.600,-24.600
3.82,1,-1.012,-0.491,-3.294,2268.000,7830.000,1120.000,1.050,-53.550,-24.750
3.94,1,-1.450,-0.839,-4.037,2290.000,7790.000,1292.000,0.900,-54.600,-24.600
4.03,1,-2.065,-1.366,-4.754,2246.000,7780.000,1440.000,1.050,-54.750,-26.250
4.14,1,-3.004,-1.941,-5.518,2318.000,7736.000,1550.000,-0.450,-53.700,-27.450
4.23,1,-4.250,-2.629,-6.211,2328.000,7770.000,1678.000,-1.050,-52.350,-29.250
4.35,1,-5.626,-3.359,-6.809,2414.000,7634.000,1628.000,0.750,-54.000,-28.800
4.45,1,-6.724,-4.126,-7.113,2404.000,7684.000,1956.000,1.500,-53.550,-31.050
4.56,1,-7.745,-5.100,-6.900,2324.000,7592.000,2230.000,-0.150,-52.200,-34.200
4.66,1,-8.984,-5.950,-6.989,2348.000,7484.000,2264.000,-2.250,-50.400,-34.050
4.77,1,-10.149,-6.862,-7.370,2430.000,7474.000,2520.000,0.450,-51.450,-34.200
4.87,1,-11.332,-7.993,-7.111,2390.000,7480.000,2984.000,0.750,-52.050,-37.650
4.96,1,-12.672,-9.371,-6.773,2394.000,7370.000,3086.000,-0.450,-51.450,-38.550
5.06,1,-14.255,-10.601,-6.592,2316.000,7152.000,3158.000,-1.650,-50.250,-41.250
5.16,1,-15.702,-11.678,-7.136,2456.000,7052.000,3306.000,-2.550,-49.650,-41.700
5.28,1,-17.286,-12.440,-6.775,2492.000,7024.000,3716.000,-2.700,-47.850,-44.250
5.38,1,-18.930,-13.183,-6.174,2400.000,6854.000,3962.000,-0.450,-47.850,-45.600
5.48,1,-20.267,-14.267,-6.282,2348.000,6702.000,3974.000,-0.300,-46.950,-48.000
5.58,1,-21.303,-15.531,-6.818,2478.000,6566.000,4306.000,-0.900,-46.650,-50.400
5.69,1,-22.384,-16.585,-6.943,2456.000,6452.000,4610.000,-0.150,-46.350,-49.800
5.80,1,-23.700,-17.506,-6.882,2416.000,6414.000,4950.000,-0.300,-43.350,-52.500
5.89,1,-25.393,-18.388,-6.753,2262.000,6182.000,5070.000,-1.950,-42.750,-53.850
6.00,1,-27.091,-19.211,-6.992,2346.000,6116.000,5128.000,-1.950,-42.450,-55.650
6.11,1,-28.611,-20.136,-7.236,2334.000,5840.000,5244.000,-1.500,-42.600,-58.800
6.22,1,-30.065,-21.069,-7.570,2394.000,5738.000,5388.000,-0.900,-39.600,-60.150
6.31,1,-31.523,-21.735,-7.424,2346.000,5586.000,5580.000,-0.150,-41.250,-59.700
6.42,1,-32.704,-22.577,-7.620,2334.000,5556.000,5892.000,-0.900,-38.550,-61.650
6.53,1,-33.856,-23.591,-7.665,2316.000,5292.000,6202.000,-1.800,-39.000,-62.850
6.64,1,-35.452,-24.463,-7.443,2318.000,5120.000,6356.000,-0.900,-37.650,-63.750
6.73,1,-37.258,-25.470,-7.143,2294.000,4954.000,6352.000,-0.150,-34.950,-65.250
6.84,1,-39.159,-26.539,-6.590,2322.000,4782.000,6650.000,0.450,-33.000,-66.450
6.94,1,-41.397,-27.540,-5.734,2070.000,4544.000,6684.000,-0.450,-32.250,-67.200
7.05,1,-43.393,-28.872,-5.448,2202.000,4188.000,6742.000,0.900,-30.600,-68.550
7.15,1,-45.277,-30.241,-4.985,2304.000,3956.000,6944.000,-1.650,-27.150,-70.500
7.26,1,-47.159,-31.292,-4.172,2296.000,3738.000,6984.000,0.300,-28.050,-69.900
7.37,1,-49.100,-31.788,-3.243,2074.000,3508.000,7118.000,0.000,-24.600,-70.650
7.46,1,-50.757,-32.473,-2.744,2190.000,3292.000,7234.000,0.150,-22.800,-72.000
7.57,1,-52.512,-32.872,-2.100,2024.000,3134.000,7612.000,0.150,-23.250,-73.800
7.68,1,-54.146,-33.771,-1.384,1926.000,2920.000,7550.000,1.050,-21.000,-74.400
7.77,1,-55.853,-34.402,-0.632,1912.000,2702.000,7620.000,2.250,-19.950,-75.150
7.88,1,-57.614,-35.023,0.276,1898.000,2488.000,7820.000,1.650,-19.650,-77.100
7.99,1,-59.332,-35.742,0.884,1800.000,2328.000,7690.000,0.300,-18.300,-76.650
8.10,1,-61.008,-36.429,1.716,1772.000,2078.000,7954.000,0.900,-16.500,-76.050
8.21,1,-62.635,-37.161,2.522,1928.000,1836.000,7814.000,-0.150,-13.800,-78.600
8.30,1,-64.164,-37.922,3.261,1882.000,1612.000,7736.000,1.050,-13.950,-76.950
8.41,1,-65.487,-38.471,4.176,1768.000,1414.000,7860.000,1.500,-13.650,-78.000
8.51,1,-66.822,-39.095,5.008,1854.000,1358.000,8298.000,0.300,-11.700,-77.250
8.63,1,-68.464,-39.936,5.825,1898.000,1060.000,8040.000,1.050,-11.250,-78.450
8.72,1,-70.207,-40.707,7.240,1936.000,852.000,7986.000,-0.150,-9.450,-78.600
8.82,1,-72.204,-40.825,8.898,2064.000,638.000,8198.000,1.650,-8.700,-79.800
8.93,1,-73.993,-41.291,10.493,1766.000,474.000,7936.000,-0.450,-6.750,-79.800
9.04,1,-75.660,-41.589,12.019,1688.000,256.000,7966.000,0.900,-7.500,-79.800
9.13,1,-77.035,-42.028,13.454,1626.000,102.000,8040.000,1.500,-4.200,-79.200
9.24,1,-78.314,-42.448,14.742,1722.000,-44.000,8260.000,-0.150,-4.500,-81.150
9.35,1,-79.939,-42.605,16.400,1776.000,-200.000,8254.000,0.000,-4.200,-80.250
9.46,1,-81.476,-43.289,18.357,1666.000,-360.000,7932.000,1.650,-2.850,-80.850
9.55,1,-82.775,-43.800,20.056,1806.000,-534.000,8138.000,0.450,0.900,-80.400
9.66,1,-84.289,-43.812,21.906,1634.000,-688.000,8368.000,1.200,-1.350,-81.600
9.77,1,-85.948,-43.995,23.964,1538.000,-784.000,7900.000,1.200,0.900,-80.400
9.88,1,-87.261,-44.352,25.850,1592.000,-1052.000,7814.000,0.000,0.750,-82.500
9.97,1,-88.394,-43.966,27.448,1430.000,-1124.000,8010.000,0.300,1.050,-81.750
10.08,1,-88.999,-44.197,28.958,1370.000,-1166.000,7860.000,0.750,0.300,-81.750
10.19,1,-89.284,-44.129,30.207,1312.000,-1194.000,7818.000,0.000,2.250,-80.700
10.28,1,-89.250,-43.951,31.191,1320.000,-1138.000,8194.000,1.200,1.350,-83.400
10.39,1,-89.183,-44.010,32.112,1438.000,-1172.000,8146.000,1.050,1.050,-83.250
10.50,1,-88.899,-44.345,33.020,1528.000,-1230.000,7998.000,0.900,1.650,-82.650
10.61,1,-88.427,-44.348,33.644,1520.000,-1116.000,8364.000,1.050,2.250,-80.700
10.70,1,-88.053,-44.254,34.226,1522.000,-1058.000,8460.000,2.550,0.750,-81.450
10.81,1,-88.025,-44.375,35.083,1700.000,-1128.000,8174.000,1.500,0.300,-82.200
10.92,1,-88.104,-44.367,36.111,1534.000,-1116.000,8082.000,1.200,1.650,-82.350
11.03,1,-88.117,-44.306,37.153,1332.000,-1038.000,8210.000,0.750,1.050,-82.500
11.12,1,-88.125,-44.387,38.084,1484.000,-1094.000,8102.000,1.050,1.050,-81.750
11.23,1,-88.145,-44.518,39.154,1438.000,-1080.000,8236.000,1.500,0.750,-81.750
11.34,1,-88.218,-44.558,40.149,1504.000,-1080.000,8072.000,1.050,0.750,-80.700
11.44,1,-88.300,-44.683,41.225,1310.000,-1096.000,8090.000,0.750,1.050,-83.550
11.55,1,-88.214,-44.822,42.187,1382.000,-1142.000,8270.000,2.550,0.300,-81.450
11.66,1,-88.293,-44.896,43.049,1496.000,-1104.000,8124.000,1.200,3.300,-82.650
11.77,1,-88.392,-45.029,44.074,1502.000,-1162.000,8094.000,1.200,1.350,-80.850
11.87,1,-88.494,-45.113,45.107,1436.000,-1192.000,8070.000,1.200,2.400,-81.150
11.97,1,-88.501,-45.219,45.989,1470.000,-1190.000,8134.000,0.900,2.850,-81.900
12.07,1,-88.483,-45.224,46.768,1402.000,-1204.000,8182.000,-0.150,0.900,-80.850
12.18,1,-88.469,-45.364,47.508,1632.000,-1144.000,8180.000,0.750,2.700,-81.750
12.29,1,-88.504,-45.458,48.412,1520.000,-1176.000,8188.000,0.750,0.750,-81.000
12.38,1,-88.523,-45.615,49.299,1410.000,-1150.000,8108.000,0.450,0.450,-82.350
12.49,1,-88.458,-46.100,50.048,1516.000,-1200.000,8074.000,0.000,1.500,-80.250
12.60,1,-88.330,-46.480,50.755,1718.000,-1182.000,8148.000,-0.900,1.650,-82.650
12.70,1,-88.397,-46.465,51.672,1646.000,-1146.000,8042.000,-0.450,0.900,-81.150
12.80,1,-88.505,-46.531,52.607,1690.000,-1132.000,8068.000,1.050,3.450,-80.700
12.91,1,-88.600,-46.568,53.527,1512.000,-1252.000,8042.000,-0.450,2.100,-82.650
13.02,1,-88.472,-46.814,54.257,1704.000,-1144.000,8024.000,-0.450,1.650,-81.600
13.12,1,-88.351,-46.699,55.072,1642.000,-1224.000,8142.000,-0.750,1.050,-82.500
13.22,1,-88.489,-46.508,55.990,1578.000,-1196.000,8134.000,-0.900,1.350,-81.900
13.33,1,-88.754,-46.414,57.053,1482.000,-1140.000,8014.000,1.050,0.750,-82.500
13.43,1,-88.927,-46.621,58.068,1472.000,-1226.000,7886.000,-0.450,2.100,-81.600
13.54,1,-88.875,-46.597,58.770,1598.000,-1174.000,8146.000,0.000,2.700,-82.200
13.64,1,-88.841,-46.519,59.480,1578.000,-1214.000,8214.000,-0.450,2.100,-81.600
13.75,1,-88.907,-46.357,60.134,1450.000,-1222.000,8216.000,0.750,1.500,-81.000
13.86,1,-88.955,-46.340,60.802,1628.000,-1244.000,8126.000,0.750,1.950,-82.500
13.95,1,-88.985,-46.357,61.631,1458.000,-1186.000,8110.000,0.300,3.000,-82.950
14.06,1,-88.933,-46.296,62.264,1470.000,-1300.000,8196.000,-0.150,2.850,-80.850
14.17,1,-88.869,-46.308,62.745,1550.000,-1196.000,8204.000,1.050,2.250,-81.450
14.26,1,-89.009,-46.399,63.608,1498.000,-1206.000,8044.000,0.900,2.850,-80.850
14.37,1,-89.068,-46.487,64.300,1398.000,-1244.000,7986.000,1.050,1.950,-81.750
14.48,1,-89.046,-46.465,64.838,1484.000,-1144.000,8096.000,-1.050,3.000,-82.200
14.59,1,-88.987,-46.380,65.408,1472.000,-1242.000,8316.000,1.500,1.950,-82.500
14.68,1,-89.015,-46.557,66.076,1448.000,-1230.000,8106.000,0.450,1.650,-82.350
14.79,1,-89.064,-46.597,66.740,1456.000,-1290.000,8090.000,2.250,3.450,-81.450
14.89,1,-89.049,-46.519,67.320,1452.000,-1202.000,8234.000,0.300,2.700,-82.500
15.00,1,-89.027,-46.671,67.849,1408.000,-1228.000,8156.000,-1.650,2.100,-82.650
15.10,1,-89.069,-46.631,68.344,1530.000,-1220.000,8174.000,1.050,1.950,-81.750
15.21,1,-89.104,-46.662,68.914,1558.000,-1144.000,8080.000,1.800,2.250,-82.500
15.30,1,-89.077,-46.624,69.416,1436.000,-1156.000,8098.000,0.900,1.350,-81.150
15.42,1,-89.053,-46.728,69.929,1374.000,-1232.000,8182.000,1.050,1.950,-80.250
15.52,1,-89.042,-46.786,70.302,1462.000,-1166.000,8184.000,0.450,3.300,-83.400
15.63,1,-88.960,-46.893,70.663,1506.000,-1212.000,8146.000,1.500,2.700,-80.700
15.73,1,-88.878,-47.090,71.106,1506.000,-1290.000,8172.000,-0.750,2.250,-81.000
15.84,1,-88.858,-47.162,71.481,1578.000,-1222.000,8090.000,0.000,3.000,-82.950
15.94,1,-88.954,-47.148,72.078,1480.000,-1262.000,8100.000,0.450,0.900,-81.150
16.05,1,-88.805,-47.226,72.440,1562.000,-1168.000,8110.000,-0.450,1.650,-81.900
16.15,1,-88.662,-47.308,72.852,1550.000,-1264.000,8124.000,1.050,2.250,-82.950
16.26,1,-88.636,-47.376,73.287,1616.000,-1194.000,8268.000,0.300,1.950,-82.500
16.37,1,-88.830,-47.463,73.876,1604.000,-1170.000,8122.000,-1.200,1.650,-83.100
16.46,1,-89.092,-47.390,74.488,1478.000,-1252.000,7948.000,1.200,1.350,-82.650
16.58,1,-89.185,-47.451,75.001,1460.000,-1282.000,7990.000,-0.150,1.650,-81.150
16.67,1,-89.123,-47.497,75.347,1412.000,-1344.000,8026.000,0.900,2.400,-83.400
16.78,1,-89.089,-47.642,75.727,1606.000,-1276.000,7996.000,-0.150,2.850,-82.650
16.89,1,-89.039,-47.647,76.075,1630.000,-1246.000,8042.000,0.150,1.650,-80.400
16.99,1,-88.979,-47.724,76.471,1616.000,-1276.000,8150.000,0.150,1.650,-81.900
17.09,1,-89.007,-47.717,76.884,1614.000,-1246.000,8088.000,0.300,1.950,-81.750
17.20,1,-89.036,-47.836,77.308,1636.000,-1250.000,8108.000,0.000,1.950,-83.250
17.32,1,-89.010,-47.899,77.654,1592.000,-1298.000,8054.000,0.900,2.400,-82.650
17.42,1,-88.936,-47.805,77.981,1548.000,-1172.000,8316.000,-1.200,3.300,-81.600
17.51,1,-88.998,-47.814,78.453,1524.000,-1280.000,8098.000,1.200,1.650,-80.850
17.62,1,-89.009,-47.874,78.980,1598.000,-1314.000,7860.000,0.300,1.950,-82.200
17.72,1,-88.788,-47.690,79.257,1474.000,-1154.000,8226.000,0.900,0.900,-82.650
17.84,1,-88.657,-47.697,79.456,1544.000,-1116.000,8314.000,1.050,1.950,-82.200
17.92,1,-88.779,-47.812,79.914,1566.000,-1210.000,8056.000,-0.150,2.100,-81.150
18.03,1,-88.877,-47.840,80.351,1598.000,-1214.000,7996.000,0.150,2.850,-81.600
18.13,1,-88.820,-47.918,80.647,1538.000,-1238.000,8082.000,0.900,2.400,-81.600
18.23,1,-88.797,-47.894,80.947,1632.000,-1200.000,8220.000,-0.300,3.000,-81.450
18.34,1,-88.943,-47.836,81.335,1556.000,-1232.000,8066.000,0.000,3.450,-79.200
18.44,1,-89.019,-47.934,81.662,1500.000,-1256.000,7900.000,0.150,2.850,-81.150
18.55,1,-88.886,-47.876,81.876,1438.000,-1274.000,8162.000,-0.900,2.400,-80.850
18.66,1,-88.914,-48.022,82.178,1598.000,-1236.000,8226.000,-0.450,3.300,-81.600
18.75,1,-89.069,-48.180,82.605,1632.000,-1330.000,7866.000,-1.650,2.850,-81.600
18.86,1,-89.027,-48.165,82.860,1544.000,-1346.000,8064.000,0.450,1.650,-81.150
18.97,1,-88.975,-48.257,83.087,1612.000,-1248.000,8104.000,0.900,2.850,-80.850
19.07,1,-89.042,-48.361,83.313,1586.000,-1280.000,7936.000,0.750,2.250,-81.000
19.17,1,-89.122,-48.233,83.636,1608.000,-1304.000,8096.000,-0.450,3.300,-82.350
19.28,1,-89.149,-48.290,83.925,1520.000,-1276.000,8054.000,-0.900,3.600,-81.600
19.39,1,-89.067,-48.244,84.051,1576.000,-1352.000,8080.000,0.000,3.450,-80.700
19.49,1,-89.102,-48.308,84.273,1644.000,-1170.000,8238.000,-1.050,2.700,-81.750
19.59,1,-89.272,-48.370,84.694,1520.000,-1304.000,7898.000,0.450,2.100,-81.600
19.70,1,-89.157,-48.278,84.930,1446.000,-1306.000,8040.000,-0.300,2.250,-81.000
19.80,1,-89.031,-48.266,85.046,1534.000,-1224.000,8178.000,-0.750,2.250,-83.250
19.91,1,-89.003,-48.272,85.226,1570.000,-1270.000,7946.000,-1.200,1.650,-80.850
20.01,1,-89.015,-48.191,85.456,1432.000,-1208.000,8200.000,-1.650,2.100,-82.350
20.11,1,-89.097,-48.233,85.577,1452.000,-1266.000,8070.000,0.150,4.500,-81.150
20.22,1,-89.142,-48.406,85.745,1596.000,-1236.000,7796.000,-0.750,2.700,-81.450
20.32,1,-88.862,-48.425,85.702,1582.000,-1366.000,8142.000,-0.150,3.300,-81.600
20.43,1,-88.490,-48.548,85.478,1604.000,-1228.000,8196.000,-1.500,3.000,-80.700
20.54,1,-88.341,-48.724,85.460,1784.000,-1250.000,8138.000,0.450,2.400,-81.150
20.64,1,-88.435,-48.803,85.776,1666.000,-1252.000,8244.000,0.900,2.400,-82.350
20.74,1,-88.624,-48.871,86.147,1662.000,-1222.000,8226.000,-2.550,3.000,-81.000
20.84,1,-89.248,-48.947,86.718,1694.000,-1336.000,8172.000,-1.050,1.500,-81.750
20.95,1,-90.059,-49.087,87.628,1680.000,-1380.000,8024.000,-0.300,2.700,-81.000
21.06,1,-90.804,-49.088,88.552,1504.000,-1506.000,7968.000,-0.750,3.900,-81.750
21.15,1,-91.096,-49.208,89.054,1550.000,-1450.000,7708.000,-0.300,4.950,-81.450
21.26,1,-90.880,-49.151,89.219,1452.000,-1440.000,7834.000,-1.500,4.200,-81.450
21.37,1,-90.367,-49.110,89.062,1674.000,-1490.000,8342.000,-1.050,4.950,-82.500
21.48,1,-90.132,-49.119,89.001,1700.000,-1388.000,7994.000,1.050,3.450,-81.750
21.57,1,-89.845,-49.120,89.053,1554.000,-1364.000,7800.000,-0.900,2.850,-81.900
21.68,1,-88.966,-49.371,88.753,1704.000,-1324.000,7964.000,-0.750,4.650,-81.750
21.79,1,-87.959,-49.173,88.260,1628.000,-1150.000,8234.000,-1.200,0.900,-81.150
21.90,1,-86.996,-49.227,87.797,1762.000,-1176.000,8012.000,-0.900,1.650,-82.650
21.99,1,-86.085,-49.269,87.400,1668.000,-1022.000,8214.000,-0.150,1.350,-81.600
22.10,1,-85.386,-49.197,86.949,1860.000,-1022.000,8176.000,-0.900,3.600,-81.900
22.21,1,-84.891,-49.152,86.725,1854.000,-916.000,8078.000,0.150,0.450,-81.600
22.31,1,-84.507,-49.123,86.559,1668.000,-930.000,8224.000,-1.500,3.000,-80.700
22.42,1,-84.082,-49.218,86.163,1716.000,-770.000,8062.000,-1.950,1.350,-81.600
22.51,1,-83.520,-49.330,85.721,1798.000,-836.000,7966.000,-1.800,1.050,-81.750
22.64,1,-82.859,-49.203,85.148,1832.000,-756.000,8010.000,-0.450,-0.900,-80.100
22.73,1,-82.115,-49.169,84.538,1898.000,-656.000,8188.000,-1.800,0.750,-79.500
22.84,1,-81.465,-49.158,84.053,1870.000,-652.000,8002.000,-1.200,0.150,-79.800
22.95,1,-80.679,-49.087,83.475,1760.000,-576.000,7970.000,-1.650,-1.350,-79.800
23.04,1,-79.764,-49.005,82.904,1906.000,-470.000,8028.000,-1.650,-2.100,-79.350
23.15,1,-78.760,-48.863,82.246,1886.000,-434.000,8166.000,-2.250,-0.750,-81.450
23.25,1,-77.885,-48.630,81.623,1888.000,-244.000,8198.000,-1.650,-2.100,-80.850
23.35,1,-77.069,-48.501,81.087,1894.000,-144.000,8048.000,-1.500,-3.450,-81.000
23.46,1,-76.116,-48.182,80.417,1852.000,-82.000,8068.000,-0.750,-2.250,-80.700
23.57,1,-75.184,-47.793,79.667,1814.000,84.000,8250.000,0.000,-4.950,-81.000
23.67,1,-74.278,-47.790,78.933,1932.000,110.000,8074.000,-0.750,-5.400,-81.000
23.78,1,-73.423,-47.547,78.285,1970.000,172.000,7862.000,-0.900,-4.500,-81.150
23.87,1,-72.423,-47.112,77.623,1986.000,278.000,8154.000,-2.400,-6.450,-80.400
23.98,1,-71.394,-47.021,76.946,1838.000,384.000,8166.000,0.000,-5.400,-79.950
24.09,1,-70.486,-46.831,76.105,1920.000,544.000,8234.000,-1.500,-6.900,-79.500
24.19,1,-69.809,-46.609,75.435,1964.000,620.000,7998.000,-0.450,-7.200,-80.100
24.29,1,-69.170,-46.364,74.853,2002.000,626.000,8126.000,0.900,-6.750,-79.050
24.40,1,-68.433,-46.314,74.310,1918.000,750.000,7842.000,-0.900,-6.750,-79.050
24.51,1,-67.590,-46.043,73.784,1936.000,880.000,8130.000,-0.450,-8.400,-78.300
24.62,1,-66.518,-45.954,72.746,1978.000,980.000,8012.000,-0.900,-9.450,-78.300
24.71,1,-65.494,-45.758,71.716,2066.000,1086.000,8080.000,-0.750,-9.300,-78.000
24.82,1,-64.395,-45.799,70.623,2164.000,1130.000,7914.000,-1.800,-10.050,-79.200
24.93,1,-63.318,-45.793,69.672,2186.000,1182.000,7914.000,-2.400,-12.300,-78.300
25.02,1,-62.265,-45.559,68.950,2260.000,1340.000,7730.000,-1.800,-10.950,-77.700
25.13,1,-61.281,-45.028,68.397,2154.000,1476.000,8060.000,-1.650,-12.600,-77.850
25.24,1,-60.196,-44.771,67.407,2228.000,1526.000,8068.000,-3.000,-12.450,-79.200
25.35,1,-59.346,-44.602,66.456,2206.000,1684.000,7884.000,-1.650,-12.600,-77.100
25.44,1,-58.505,-44.462,65.617,2160.000,1706.000,7758.000,-2.400,-13.500,-76.800
25.55,1,-57.624,-44.186,64.747,2126.000,1864.000,7802.000,-3.300,-15.600,-78.450
25.66,1,-56.830,-43.806,63.898,2308.000,1948.000,7820.000,-1.800,-15.150,-77.250
25.76,1,-56.013,-43.481,63.183,2198.000,2020.000,7656.000,-1.800,-15.600,-77.250
25.87,1,-54.850,-43.282,62.180,2264.000,2162.000,7732.000,-3.150,-17.400,-77.100
25.96,1,-53.920,-42.787,61.427,2212.000,2280.000,7730.000,-3.000,-16.350,-76.200
26.07,1,-53.095,-42.451,60.620,2328.000,2372.000,7956.000,-2.400,-16.950,-75.600
26.19,1,-52.458,-42.232,59.730,2310.000,2418.000,7606.000,-2.550,-16.350,-76.200
26.29,1,-51.757,-42.116,58.777,2348.000,2460.000,7524.000,-0.450,-18.900,-75.600
26.38,1,-51.112,-41.922,57.932,2392.000,2582.000,7546.000,-3.150,-19.650,-76.050
26.50,1,-50.368,-41.856,56.931,2478.000,2610.000,7538.000,-3.000,-19.950,-75.900
26.59,1,-49.612,-41.756,56.133,2352.000,2686.000,7338.000,-3.000,-21.000,-76.200
26.70,1,-48.425,-41.884,54.834,2640.000,2734.000,7380.000,-2.250,-20.250,-73.650
26.81,1,-47.586,-41.448,53.981,2426.000,2852.000,7462.000,-2.400,-19.650,-74.100
26.91,1,-46.620,-41.079,52.882,2536.000,2924.000,7420.000,-4.500,-22.200,-72.900
27.02,1,-45.844,-40.605,51.958,2558.000,3026.000,7318.000,-3.450,-22.050,-73.500
27.12,1,-44.934,-40.159,51.007,2486.000,3130.000,7174.000,-3.450,-22.800,-72.300
27.23,1,-43.841,-39.670,49.871,2606.000,3264.000,7204.000,-0.900,-24.000,-72.300
27.33,1,-42.837,-39.151,48.810,2648.000,3468.000,7302.000,-3.000,-24.150,-73.200
27.44,1,-41.943,-38.858,47.862,2634.000,3534.000,7178.000,-3.150,-25.500,-72.300
27.54,1,-41.126,-38.519,46.951,2634.000,3614.000,7022.000,-3.150,-25.950,-71.550
27.64,1,-40.170,-38.299,45.919,2702.000,3660.000,6846.000,-5.400,-26.700,-70.500
27.75,1,-39.171,-37.879,44.938,2606.000,3772.000,6720.000,-3.300,-27.000,-69.900
27.85,1,-37.882,-37.464,43.644,2732.000,3922.000,6756.000,-2.250,-28.500,-69.150
27.96,1,-36.742,-36.842,42.678,2504.000,4044.000,6700.000,-3.000,-29.250,-68.400
28.07,1,-35.524,-36.175,41.604,2564.000,4170.000,6622.000,-3.900,-29.550,-67.950
28.17,1,-34.183,-35.499,40.325,2744.000,4346.000,6510.000,-3.900,-30.600,-66.000
28.26,1,-32.977,-34.590,39.148,2802.000,4504.000,6436.000,-3.300,-31.650,-65.850
28.38,1,-31.674,-33.911,37.979,2970.000,4698.000,6258.000,-4.200,-31.500,-65.250
28.49,1,-30.247,-33.305,36.890,2884.000,4752.000,6112.000,-3.900,-34.200,-64.950
28.58,1,-28.544,-32.635,35.647,2968.000,4848.000,5938.000,-3.750,-35.100,-63.300
28.68,1,-27.327,-31.500,35.153,2922.000,5094.000,6064.000,-3.900,-34.950,-63.450
28.79,1,-26.214,-30.310,34.336,2972.000,5320.000,5728.000,-3.150,-36.450,-62.250
28.90,1,-25.125,-29.267,33.944,2758.000,5522.000,5604.000,-4.950,-38.550,-59.700
29.01,1,-23.924,-28.537,33.169,2754.000,5604.000,5510.000,-3.450,-39.300,-60.150
29.11,1,-22.761,-27.839,32.511,2728.000,5702.000,5292.000,-4.500,-39.900,-57.000
29.22,1,-21.629,-27.028,31.732,2802.000,5764.000,5214.000,-3.900,-41.250,-56.400
29.32,1,-20.631,-26.201,31.065,2922.000,5926.000,5116.000,-3.300,-40.650,-55.800
29.43,1,-19.824,-25.276,30.612,2918.000,5924.000,5006.000,-3.750,-42.600,-55.050
29.53,1,-19.039,-24.507,30.426,2848.000,6130.000,4910.000,-2.550,-41.850,-54.300
29.65,1,-18.089,-24.000,29.921,2808.000,6154.000,4716.000,-4.500,-43.050,-54.000
29.74,1,-16.990,-23.421,29.310,2730.000,6282.000,4430.000,-2.700,-44.400,-51.600
29.84,1,-16.147,-22.379,29.130,2768.000,6390.000,4616.000,-3.150,-45.450,-51.150
29.96,1,-15.666,-21.309,28.798,2870.000,6524.000,4548.000,-2.700,-45.450,-50.400
30.06,1,-15.195,-20.637,28.396,2662.000,6656.000,4214.000,-1.500,-45.750,-49.200
30.17,1,-14.675,-20.063,27.743,2706.000,6618.000,4064.000,-3.000,-46.950,-50.250
30.28,1,-14.052,-19.490,27.095,2636.000,6630.000,4012.000,-2.250,-48.900,-48.000
30.37,1,-13.522,-18.663,26.710,2556.000,6804.000,3824.000,-1.200,-47.550,-45.300
30.48,1,-12.836,-17.827,26.246,2726.000,6780.000,3782.000,-3.450,-48.300,-46.350
30.58,1,-12.168,-17.057,25.988,2638.000,6956.000,3754.000,-1.050,-48.900,-43.650
30.68,1,-11.492,-16.379,25.611,2552.000,6966.000,3490.000,-1.050,-49.200,-43.950
30.79,1,-10.931,-15.558,25.597,2572.000,7018.000,3354.000,-2.550,-49.200,-42.450
30.89,1,-10.219,-14.798,25.509,2564.000,7086.000,3124.000,-0.150,-49.800,-40.800
30.99,1,-9.554,-14.040,25.370,2544.000,7168.000,3120.000,-2.400,-48.600,-41.550
31.09,1,-8.874,-13.388,25.185,2498.000,7244.000,3130.000,-0.750,-49.200,-39.900
31.20,1,-8.229,-12.760,24.756,2520.000,7264.000,2936.000,-2.250,-49.650,-39.600
31.31,1,-7.588,-12.147,24.170,2562.000,7310.000,2816.000,-0.300,-50.400,-38.100
31.40,1,-7.044,-11.540,23.790,2486.000,7310.000,2698.000,-1.800,-50.100,-38.400
31.51,1,-6.625,-10.878,23.589,2322.000,7454.000,2572.000,0.000,-51.150,-36.600
31.62,1,-6.041,-10.140,23.512,2222.000,7534.000,2090.000,0.750,-50.100,-35.100
31.71,1,-5.165,-9.118,23.387,2286.000,7546.000,2138.000,0.300,-52.350,-34.350
31.82,1,-4.055,-8.141,22.692,2376.000,7662.000,2246.000,0.450,-53.400,-33.750
31.93,1,-2.963,-7.281,21.908,2282.000,7652.000,1930.000,0.450,-52.200,-31.650
32.03,1,-1.728,-6.288,20.746,2516.000,7666.000,1622.000,0.750,-53.100,-29.550
32.14,1,-0.934,-5.145,21.750,2380.000,7796.000,1474.000,0.150,-54.150,-28.650
32.24,1,-0.391,-3.990,24.968,2228.000,7884.000,1566.000,-0.750,-54.300,-27.300
32.34,1,0.264,-3.313,26.525,2218.000,7910.000,1648.000,-0.150,-53.700,-25.350
32.45,1,0.815,-3.238,26.926,2090.000,7916.000,1562.000,0.750,-53.550,-25.500
32.56,1,0.941,-3.309,26.257,2248.000,7820.000,1192.000,0.450,-54.150,-23.100
32.65,1,0.781,-3.327,25.788,2184.000,7800.000,1036.000,0.150,-53.400,-25.350
32.76,1,0.736,-3.351,24.951,2332.000,7834.000,1064.000,-0.750,-52.800,-25.500
32.87,1,0.718,-3.394,24.318,2202.000,7826.000,1180.000,-0.150,-53.700,-24.900
32.98,1,0.604,-3.383,23.869,2270.000,7766.000,1132.000,-0.150,-54.600,-26.400
33.09,1,0.471,-3.331,23.446,2260.000,7782.000,1104.000,0.000,-54.300,-25.050
33.19,1,0.402,-3.309,22.953,2268.000,7748.000,1106.000,-0.300,-55.500,-25.050
33.30,1,0.342,-3.307,22.419,2296.000,7732.000,1110.000,1.200,-52.950,-24.900
33.39,1,0.284,-3.358,21.917,2286.000,7812.000,1160.000,0.750,-53.550,-26.250
33.50,1,0.292,-3.408,21.297,2336.000,7832.000,1152.000,0.000,-54.000,-26.250
33.61,1,0.288,-3.467,20.722,2286.000,7816.000,1200.000,-1.650,-53.400,-24.150
33.72,1,0.230,-3.526,20.159,2222.000,7752.000,1216.000,-0.750,-54.300,-25.500
33.81,1,0.115,-3.498,19.660,2246.000,7768.000,1164.000,-0.300,-54.750,-25.050
33.92,1,0.077,-3.395,19.164,2308.000,7764.000,1088.000,-0.150,-55.350,-25.350
34.03,1,0.106,-3.263,18.739,2284.000,7794.000,1222.000,-0.150,-54.150,-25.650
34.13,1,0.137,-3.172,18.367,2282.000,7790.000,1222.000,-1.200,-53.700,-25.650
34.23,1,0.126,-3.109,17.915,2284.000,7762.000,1170.000,-0.750,-52.800,-26.250
34.34,1,0.062,-3.023,17.504,2330.000,7816.000,1114.000,0.150,-53.400,-25.350
34.45,1,-0.026,-2.944,17.125,2284.000,7786.000,1116.000,0.750,-53.100,-24.750
34.54,1,-0.046,-2.909,16.696,2280.000,7718.000,1158.000,-0.300,-54.750,-25.050
34.66,1,-0.070,-2.875,16.365,2242.000,7830.000,1156.000,0.900,-54.150,-25.350
34.74,1,-0.116,-2.782,16.067,2238.000,7754.000,1186.000,0.750,-54.000,-24.750
34.85,1,-0.188,-2.649,15.800,2340.000,7804.000,1170.000,0.150,-53.400,-25.350
34.96,1,-0.214,-2.567,15.492,2246.000,7806.000,1158.000,0.300,-52.350,-25.050
35.07,1,-0.236,-2.464,15.175,2278.000,7818.000,1222.000,0.150,-54.600,-24.900
35.18,1,-0.244,-2.373,14.777,2322.000,7752.000,1142.000,-0.450,-53.400,-26.100
35.27,1,-0.203,-2.341,14.403,2272.000,7790.000,1118.000,0.300,-54.300,-25.050
35.38,1,-0.164,-2.321,14.029,2226.000,7812.000,1122.000,-1.200,-51.000,-25.650
35.49,1,-0.123,-2.258,13.659,2278.000,7838.000,1152.000,0.150,-52.500,-25.650
35.58,1,-0.146,-2.203,13.358,2232.000,7812.000,1168.000,0.000,-55.050,-22.500
35.69,1,-0.216,-2.130,13.040,2140.000,7766.000,1080.000,0.150,-54.150,-25.650
35.80,1,-0.262,-1.988,12.650,2302.000,7784.000,1102.000,0.150,-53.700,-26.700
35.91,1,-0.226,-1.945,12.194,2314.000,7820.000,1116.000,1.650,-55.350,-24.600
36.00,1,-0.237,-1.968,11.840,2258.000,7812.000,1100.000,0.300,-54.300,-24.300
36.11,1,-0.293,-1.970,11.558,2346.000,7818.000,1136.000,0.000,-54.300,-25.050
36.21,1,-0.332,-1.948,11.335,2260.000,7808.000,1136.000,-0.150,-52.500,-26.700
36.32,1,-0.382,-1.953,11.160,2286.000,7860.000,1084.000,-0.150,-53.400,-24.600
36.42,1,-0.399,-1.938,10.965,2218.000,7784.000,1088.000,0.000,-52.800,-25.050
36.53,1,-0.407,-1.880,10.747,2264.000,7768.000,1132.000,-0.750,-52.350,-25.500
36.63,1,-0.440,-1.780,10.519,2258.000,7836.000,1154.000,-0.900,-53.400,-25.650
36.73,1,-0.485,-1.717,10.277,2240.000,7826.000,1192.000,0.300,-54.000,-24.750
36.84,1,-0.569,-1.695,10.088,2258.000,7806.000,1106.000,0.450,-54.600,-24.900
36.94,1,-0.651,-1.660,9.838,2288.000,7782.000,1134.000,0.150,-53.700,-24.900
37.05,1,-0.705,-1.636,9.652,2316.000,7766.000,1160.000,0.000,-56.700,-24.300
37.15,1,-0.756,-1.633,9.475,2292.000,7782.000,1104.000,0.750,-53.550,-25.500
37.26,1,-0.796,-1.625,9.332,2282.000,7798.000,1092.000,-1.050,-55.050,-26.550
37.36,1,-0.779,-1.597,9.253,2216.000,7798.000,1148.000,0.000,-52.350,-24.750
37.48,1,-0.786,-1.552,9.122,2228.000,7816.000,1214.000,-1.050,-55.500,-26.250
37.57,1,-0.841,-1.509,8.956,2240.000,7812.000,1176.000,1.200,-54.600,-26.100
37.68,1,-0.870,-1.463,8.708,2200.000,7832.000,1146.000,0.450,-53.400,-24.900
37.79,1,-0.900,-1.434,8.421,2262.000,7782.000,1128.000,0.450,-52.500,-25.350
37.90,1,-0.945,-1.435,8.177,2240.000,7836.000,1190.000,-0.750,-52.800,-24.750
37.99,1,-1.020,-1.380,8.025,2184.000,7798.000,1102.000,0.150,-54.900,-27.150
38.10,1,-1.041,-1.310,7.868,2256.000,7828.000,1108.000,0.900,-53.400,-25.650
38.21,1,-1.019,-1.291,7.716,2218.000,7814.000,1154.000,0.300,-53.100,-25.050
38.32,1,-1.004,-1.251,7.603,2162.000,7788.000,1188.000,0.450,-52.500,-26.400
38.41,1,-1.020,-1.162,7.546,2244.000,7782.000,1226.000,-0.450,-55.350,-24.150
38.52,1,-1.045,-1.124,7.586,2204.000,7780.000,1152.000,1.500,-54.000,-25.500
38.63,1,-1.059,-1.104,7.589,2132.000,7786.000,1154.000,0.450,-54.150,-23.400
38.72,1,-1.100,-1.041,7.426,2206.000,7758.000,1198.000,0.150,-52.950,-25.650
38.83,1,-1.147,-1.054,7.289,2286.000,7838.000,1088.000,0.150,-54.150,-26.100
38.94,1,-1.122,-1.106,7.199,2128.000,7806.000,1144.000,1.200,-53.400,-25.350
39.05,1,-1.106,-1.040,7.124,2162.000,7814.000,1188.000,0.150,-53.400,-25.650
39.14,1,-1.176,-0.922,7.066,2226.000,7760.000,1190.000,0.900,-52.500,-25.650
39.25,1,-1.237,-0.864,7.001,2174.000,7814.000,1108.000,-0.750,-52.800,-25.800
39.34,1,-1.277,-0.797,6.934,2178.000,7812.000,1116.000,1.800,-54.750,-25.050
39.46,1,-1.288,-0.806,6.815,2216.000,7754.000,1152.000,-0.300,-53.550,-27.000
39.57,1,-1.262,-0.876,6.766,2234.000,7798.000,1124.000,0.150,-53.700,-25.650
39.66,1,-1.182,-0.937,6.732,2192.000,7832.000,1068.000,0.000,-54.300,-26.250
39.76,1,-1.117,-0.931,6.667,2142.000,7814.000,1096.000,0.450,-52.200,-25.650
39.88,1,-1.043,-0.860,6.498,2208.000,7828.000,1094.000,0.000,-52.050,-26.550
39.98,1,-0.962,-0.787,6.306,2270.000,7810.000,1036.000,0.150,-51.450,-24.150
40.08,1,-0.880,-0.725,6.101,2290.000,7790.000,1054.000,-0.300,-52.800,-25.500
40.19,1,-0.756,-0.725,5.924,2324.000,7774.000,1076.000,0.750,-52.350,-24.750
40.30,1,-0.675,-0.735,5.802,2284.000,7802.000,972.000,-0.300,-52.800,-25.500
40.40,1,-0.542,-0.795,5.677,2276.000,7880.000,1012.000,-0.150,-51.750,-24.600
40.50,1,-0.407,-0.886,5.558,2248.000,7782.000,1066.000,0.000,-53.100,-24.750
40.61,1,-0.331,-0.931,5.422,2274.000,7786.000,980.000,0.300,-50.400,-25.500
40.71,1,-0.222,-0.933,5.198,2300.000,7812.000,976.000,-1.200,-51.750,-26.100
40.81,1,-0.088,-0.895,5.041,2374.000,7836.000,1024.000,-0.450,-51.750,-25.350
40.92,1,-0.000,-0.890,4.954,2226.000,7874.000,1068.000,-0.300,-52.050,-26.550
41.03,1,0.015,-0.856,4.946,2230.000,7858.000,980.000,-1.050,-52.800,-25.500
41.14,1,0.085,-0.828,4.936,2246.000,7752.000,1028.000,0.300,-52.050,-24.000
41.25,1,0.074,-0.814,5.009,2264.000,7766.000,1128.000,-0.750,-52.350,-26.550
41.34,1,0.097,-0.962,5.027,2164.000,7700.000,1096.000,-0.300,-51.600,-25.500
41.45,1,-0.045,-0.981,5.221,2152.000,7860.000,922.000,-1.650,-52.500,-26.100
41.55,1,-0.236,-0.730,5.410,2464.000,7908.000,1052.000,-1.950,-52.200,-25.350
41.65,1,-0.578,-0.602,5.720,2364.000,7848.000,830.000,-0.150,-52.200,-24.150
41.76,1,-1.176,-0.220,5.814,2444.000,7828.000,610.000,0.150,-52.200,-26.700
41.87,1,-1.090,-0.055,5.392,2266.000,7724.000,818.000,0.000,-52.350,-27.000
41.98,1,-1.078,0.232,5.072,2364.000,7854.000,1006.000,0.000,-52.050,-27.000
42.08,1,-1.161,0.212,4.865,2438.000,7708.000,1100.000,0.150,-52.200,-27.450
42.18,1,-1.392,-0.234,4.667,2392.000,8248.000,898.000,0.300,-52.350,-26.250
42.29,1,-1.470,-0.788,4.502,2286.000,7682.000,1074.000,0.900,-51.000,-27.900
42.40,1,-1.433,-1.373,4.522,1976.000,7824.000,1336.000,-0.450,-52.500,-27.150
42.49,1,-1.917,-1.466,4.453,2064.000,7846.000,1416.000,-0.450,-52.200,-27.450
42.60,1,-2.697,-1.296,4.576,2012.000,7860.000,1332.000,0.450,-51.750,-28.650
42.70,1,-3.324,-1.081,4.326,1910.000,7864.000,1350.000,0.300,-54.300,-28.500
42.82,1,-4.011,-0.591,4.084,1978.000,7812.000,1524.000,1.200,-53.400,-28.200
42.92,1,-4.737,-0.178,3.760,1900.000,7854.000,1624.000,0.750,-53.100,-29.550
43.03,1,-5.174,-0.122,3.149,1734.000,7786.000,1490.000,1.050,-53.100,-29.250
43.12,1,-5.243,0.050,2.580,1628.000,7792.000,1686.000,1.200,-52.200,-29.700
43.24,1,-5.297,0.577,1.841,1972.000,7598.000,1940.000,2.550,-53.100,-30.300
43.34,1,-5.292,0.842,1.453,2210.000,7668.000,1972.000,1.800,-53.550,-29.550
43.45,1,-5.236,0.728,1.690,1788.000,7902.000,1824.000,1.800,-55.050,-28.050
43.55,1,-5.036,0.425,2.384,1544.000,7780.000,1944.000,3.450,-53.400,-28.650
43.65,1,-4.654,0.276,2.802,1630.000,8118.000,1912.000,2.400,-52.950,-28.950
43.75,1,-4.302,0.232,3.109,1664.000,7698.000,1508.000,1.200,-52.500,-28.950
43.84,1,-4.067,0.080,3.363,1576.000,8004.000,1364.000,1.050,-51.600,-28.500
43.95,1,-3.791,0.076,3.022,1676.000,7912.000,1156.000,0.150,-51.750,-29.700
44.06,1,-3.519,0.368,2.552,2032.000,8034.000,1180.000,1.200,-50.550,-29.700
44.15,1,-3.267,0.512,2.310,2012.000,7814.000,1374.000,0.300,-50.400,-28.500
44.26,1,-3.390,0.739,1.596,2306.000,8106.000,1020.000,2.250,-50.850,-29.550
44.37,1,-3.687,1.163,1.602,2184.000,7764.000,742.000,1.650,-51.750,-28.650
44.46,1,-3.646,1.264,1.861,2146.000,7908.000,596.000,3.150,-49.500,-28.650
44.60,1,-3.291,1.398,1.848,2214.000,7780.000,752.000,2.250,-50.850,-29.250
44.69,1,-2.885,1.327,1.530,2192.000,7790.000,986.000,1.650,-51.750,-28.200
44.79,1,-2.587,0.979,1.011,1994.000,7890.000,1080.000,1.200,-50.550,-28.950
44.90,1,-2.776,0.737,0.343,1990.000,8144.000,1044.000,1.200,-50.250,-27.900
45.01,1,-3.023,0.541,-0.468,1984.000,7598.000,1116.000,1.800,-51.600,-28.500
45.11,1,-3.563,0.853,-0.652,2088.000,8124.000,1086.000,3.450,-49.800,-27.900
45.21,1,-3.928,0.914,-0.821,1808.000,7842.000,1462.000,1.800,-50.400,-28.800
45.31,1,-4.458,0.941,-1.001,1490.000,8022.000,1438.000,2.400,-52.200,-29.700
45.42,1,-5.260,1.407,-1.148,1424.000,7694.000,1714.000,2.700,-50.550,-30.450
45.52,1,-5.855,1.875,-1.656,1626.000,7996.000,2088.000,3.300,-51.150,-29.850
45.63,1,-6.417,1.790,-2.501,1812.000,7614.000,2026.000,4.500,-52.800,-32.100
45.74,1,-6.816,1.252,-2.929,1514.000,7678.000,1734.000,4.650,-52.200,-31.200
45.83,1,-6.844,1.069,-2.892,1382.000,7888.000,1844.000,3.450,-51.450,-31.650
45.94,1,-6.887,1.206,-2.867,1482.000,7898.000,1882.000,4.050,-50.100,-32.550
46.05,1,-7.030,1.148,-2.982,1498.000,7820.000,1618.000,4.200,-51.450,-31.650
46.14,1,-7.063,1.148,-3.384,1482.000,7880.000,1572.000,4.050,-50.400,-31.050
46.25,1,-7.015,1.334,-3.583,1560.000,7904.000,1546.000,4.650,-51.750,-30.900
46.36,1,-6.978,1.678,-3.567,1638.000,7810.000,1498.000,3.450,-50.250,-29.400
46.46,1,-6.843,1.909,-3.594,1642.000,7890.000,1436.000,5.250,-52.350,-30.300
46.56,1,-6.456,1.916,-3.742,1582.000,7870.000,1452.000,4.200,-53.700,-32.400
46.67,1,-5.946,1.935,-3.842,1588.000,7958.000,1354.000,3.300,-54.750,-30.600
46.78,1,-5.426,1.946,-4.007,1638.000,8020.000,1312.000,3.300,-56.250,-30.300
46.87,1,-5.071,2.029,-4.197,1752.000,7922.000,1164.000,3.150,-55.650,-30.450
46.99,1,-4.824,2.177,-4.205,1846.000,7998.000,1152.000,3.150,-55.650,-28.950
47.09,1,-4.498,2.116,-4.036,1634.000,7948.000,1234.000,3.900,-56.100,-28.200
47.19,1,-4.271,2.088,-4.073,1686.000,8006.000,1208.000,2.400,-55.650,-29.400
47.30,1,-4.007,2.037,-4.124,1746.000,7960.000,1166.000,2.400,-57.300,-28.950
47.40,1,-3.851,1.947,-4.332,1718.000,7884.000,1254.000,2.700,-55.350,-30.150
47.50,1,-3.771,1.865,-4.594,1752.000,7910.000,1330.000,1.950,-56.550,-30.150
47.61,1,-3.654,1.701,-5.133,1752.000,7932.000,1260.000,2.550,-57.450,-29.850
47.71,1,-3.492,1.441,-5.989,1814.000,7910.000,1304.000,1.200,-57.300,-30.450
47.82,1,-3.453,1.377,-6.285,1894.000,7912.000,1168.000,1.200,-58.800,-30.150
47.91,1,-3.400,1.442,-6.312,1810.000,7912.000,1096.000,1.050,-56.250,-31.350
48.02,1,-3.272,1.544,-6.311,1910.000,7926.000,1132.000,1.950,-56.850,-30.150
48.15,1,-3.119,1.538,-6.308,1900.000,7914.000,1124.000,1.500,-59.400,-30.300
48.24,1,-3.017,1.573,-6.492,1802.000,7840.000,1004.000,2.400,-59.250,-31.650
48.35,1,-2.880,1.649,-6.827,1924.000,7890.000,854.000,1.950,-60.000,-31.950
48.46,1,-2.682,1.714,-7.339,2210.000,8028.000,970.000,1.800,-58.650,-30.600
48.55,1,-2.446,1.526,-7.581,1954.000,7886.000,1134.000,1.650,-60.000,-32.400
48.66,1,-2.497,1.213,-7.521,1820.000,7980.000,1270.000,1.500,-59.100,-31.350
48.76,1,-2.725,1.106,-7.543,1730.000,7870.000,974.000,-0.300,-59.400,-31.050
48.87,1,-2.919,1.284,-7.669,1928.000,7850.000,1060.000,0.300,-59.400,-32.850
48.98,1,-2.986,1.495,-7.991,1792.000,7862.000,1144.000,2.250,-60.600,-31.800
49.08,1,-2.920,1.797,-8.326,1668.000,7878.000,1228.000,1.050,-59.850,-32.850
49.18,1,-2.821,2.052,-8.716,1814.000,7932.000,1118.000,1.050,-60.600,-31.800
49.29,1,-2.835,2.162,-8.653,1946.000,7950.000,1042.000,1.500,-60.150,-32.100
49.40,1,-2.924,2.013,-8.512,1902.000,7922.000,1116.000,1.500,-59.100,-30.600
49.49,1,-3.044,1.819,-8.476,1890.000,7892.000,1042.000,1.200,-61.200,-31.950
49.60,1,-2.956,1.652,-8.546,2000.000,8006.000,948.000,3.750,-61.050,-33.300
49.71,1,-3.002,1.531,-8.446,1732.000,7898.000,1114.000,1.650,-60.750,-31.650
49.80,1,-2.903,1.639,-8.613,1818.000,7914.000,1110.000,1.950,-59.550,-32.400
49.91,1,-2.725,1.836,-8.882,1868.000,7886.000,1046.000,1.200,-60.450,-32.400
50.02,1,-2.595,2.030,-9.061,1822.000,7924.000,1094.000,1.800,-61.800,-32.100
50.11,1,-2.528,2.069,-9.077,1936.000,7874.000,1170.000,1.500,-61.800,-31.800
50.22,1,-2.526,2.038,-9.076,1898.000,7890.000,990.000,2.700,-61.950,-30.900
50.33,1,-2.489,2.023,-9.004,1882.000,7892.000,928.000,1.500,-60.150,-31.050
50.43,1,-2.317,2.091,-8.938,1882.000,7936.000,968.000,1.650,-61.500,-30.900
50.53,1,-2.250,2.094,-8.807,1864.000,7914.000,974.000,0.300,-61.350,-29.850
50.64,1,-2.255,2.113,-8.750,1962.000,7930.000,908.000,1.200,-60.750,-31.950
50.74,1,-2.314,2.154,-8.663,1884.000,7930.000,950.000,0.450,-60.450,-31.950
50.85,1,-2.323,2.185,-8.543,1874.000,7860.000,932.000,2.400,-60.750,-31.950
50.95,1,-2.238,2.200,-8.492,1858.000,7966.000,1002.000,1.500,-61.800,-28.800
51.07,1,-2.162,2.215,-8.493,1810.000,7884.000,1038.000,1.200,-61.200,-29.400
51.15,1,-2.134,2.247,-8.558,1848.000,7914.000,958.000,3.000,-60.150,-32.100
51.26,1,-2.059,2.330,-8.682,1914.000,7920.000,912.000,1.800,-60.600,-31.050
51.36,1,-1.923,2.406,-8.835,1884.000,7940.000,920.000,-0.150,-61.500,-29.400
51.49,1,-1.721,2.545,-9.013,1840.000,7892.000,920.000,2.400,-60.000,-30.900
51.59,1,-1.604,2.656,-9.066,1878.000,7948.000,876.000,0.900,-61.500,-31.650
51.69,1,-1.570,2.681,-9.083,1892.000,7980.000,954.000,0.750,-62.100,-29.850
51.80,1,-1.571,2.616,-9.178,1840.000,7908.000,882.000,0.900,-62.400,-29.700
51.91,1,-1.576,2.544,-9.322,1850.000,7902.000,864.000,1.050,-62.550,-30.300
52.00,1,-1.611,2.477,-9.445,1912.000,7916.000,868.000,-0.150,-62.400,-29.400
52.11,1,-1.602,2.445,-9.556,1906.000,7878.000,782.000,0.300,-62.100,-31.050
52.22,1,-1.590,2.537,-9.693,1920.000,8038.000,802.000,0.150,-60.450,-31.200
52.31,1,-1.481,2.580,-9.693,1882.000,7914.000,914.000,0.450,-62.700,-30.150
52.42,1,-1.436,2.451,-9.623,1934.000,8028.000,896.000,0.450,-60.000,-28.650
52.53,1,-1.485,2.243,-9.588,1908.000,7906.000,826.000,0.450,-62.700,-30.450
52.63,1,-1.574,2.125,-9.574,1858.000,7944.000,732.000,0.150,-61.500,-31.200
52.74,1,-1.604,2.163,-9.584,1866.000,7914.000,806.000,1.800,-60.600,-30.300
52.85,1,-1.588,2.199,-9.544,1806.000,7924.000,1090.000,-0.750,-61.350,-30.300
53.18,1,-1.678,2.378,-10.057,1702.000,7968.000,796.000,1.950,-60.750,-30.900
53.20,1,-1.782,2.459,-10.032,1950.000,7900.000,932.000,0.750,-61.800,-32.100
53.22,1,-1.926,2.403,-10.127,2072.000,7888.000,1012.000,0.900,-62.400,-30.150
53.26,1,-1.948,2.057,-10.045,2060.000,7946.000,1088.000,1.500,-63.000,-31.050
53.36,1,-1.983,1.792,-10.040,2032.000,7950.000,1058.000,1.200,-62.400,-30.900
53.47,1,-2.099,1.481,-9.772,2000.000,7830.000,1036.000,0.150,-60.750,-34.200
53.57,1,-2.191,1.424,-9.494,1950.000,7874.000,968.000,1.950,-61.200,-33.450
53.66,1,-2.209,1.514,-9.064,2030.000,7908.000,934.000,1.650,-60.750,-33.450
53.77,1,-2.155,1.603,-8.581,1948.000,7886.000,1094.000,0.450,-60.750,-33.750
53.88,1,-2.116,1.658,-8.276,1998.000,7934.000,990.000,2.250,-59.850,-34.050
53.99,1,-2.075,1.682,-8.156,1902.000,7820.000,1000.000,2.550,-62.550,-34.800
54.09,1,-2.016,1.809,-8.188,1940.000,7826.000,930.000,2.250,-62.100,-36.900
54.20,1,-1.923,1.974,-8.240,1896.000,7860.000,832.000,2.250,-62.550,-35.100
54.30,1,-1.800,2.295,-8.155,1934.000,7862.000,948.000,3.900,-61.950,-36.750
54.41,1,-1.666,2.547,-7.886,1834.000,7884.000,1040.000,3.750,-63.000,-35.550
54.52,1,-1.629,2.770,-7.679,1792.000,7942.000,888.000,4.050,-63.300,-35.100
54.63,1,-1.531,2.803,-7.701,1772.000,7952.000,844.000,3.750,-63.750,-35.850
54.72,1,-1.437,2.921,-8.116,1612.000,7994.000,734.000,5.250,-64.950,-35.850
54.83,1,-1.359,3.183,-8.401,1806.000,7976.000,632.000,4.950,-63.600,-35.700
54.94,1,-1.256,3.290,-8.626,1848.000,7982.000,756.000,6.600,-65.850,-36.750
55.03,1,-1.197,3.292,-8.578,1898.000,7984.000,732.000,4.200,-64.650,-36.000
55.14,1,-1.153,3.299,-8.405,1900.000,7914.000,638.000,4.500,-64.950,-36.600
55.25,1,-1.073,3.313,-8.248,1862.000,7918.000,514.000,7.350,-65.850,-36.750
55.36,1,-0.935,3.352,-7.954,1800.000,7902.000,570.000,5.700,-67.050,-34.950
55.45,1,-0.808,3.369,-7.791,1748.000,8046.000,688.000,4.650,-66.300,-35.700
55.56,1,-0.720,3.332,-7.769,1790.000,8078.000,632.000,5.550,-65.700,-35.850
55.67,1,-0.737,3.302,-7.958,1738.000,7982.000,618.000,5.550,-65.700,-36.150
55.77,1,-0.895,3.354,-8.154,1760.000,7926.000,608.000,4.650,-65.100,-35.700
55.88,1,-1.190,3.538,-8.353,1848.000,7984.000,726.000,4.200,-64.650,-36.000
55.98,1,-1.482,3.647,-8.486,1864.000,7982.000,788.000,4.650,-64.650,-34.950
56.09,1,-1.847,3.793,-8.440,1740.000,7926.000,858.000,6.150,-63.600,-36.000
56.19,1,-2.180,3.896,-8.371,1638.000,7932.000,788.000,5.400,-63.600,-34.200
56.30,1,-2.496,4.036,-8.396,1552.000,8002.000,806.000,6.300,-64.950,-35.850
56.40,1,-2.717,4.215,-8.637,1548.000,8000.000,908.000,4.950,-63.900,-35.700
56.51,1,-2.935,4.354,-9.205,1568.000,8004.000,1010.000,6.300,-64.500,-35.100
56.62,1,-3.199,4.501,-9.946,1456.000,7984.000,1044.000,6.900,-64.350,-36.450
56.72,1,-3.646,4.784,-10.806,1404.000,7966.000,1004.000,5.250,-63.000,-32.850
56.83,1,-4.075,5.115,-11.720,1462.000,7942.000,866.000,6.600,-63.600,-33.750
56.93,1,-4.314,5.460,-12.691,1518.000,7908.000,876.000,6.900,-62.700,-36.450
57.01,1,-4.315,5.645,-13.552,1516.000,8004.000,1026.000,6.300,-63.300,-35.850
57.12,1,-4.297,5.693,-14.433,1226.000,8046.000,1082.000,6.900,-62.700,-35.700
57.23,1,-4.456,5.780,-15.385,1200.000,8020.000,996.000,6.900,-62.700,-35.700
57.34,1,-4.725,6.105,-16.163,1276.000,8010.000,934.000,7.050,-63.750,-34.800
57.42,1,-4.873,6.316,-17.012,1242.000,8002.000,830.000,8.250,-65.250,-36.600
57.54,1,-4.971,6.541,-17.634,1162.000,8002.000,948.000,8.850,-65.550,-36.450
57.64,1,-5.198,6.897,-18.226,1286.000,8096.000,906.000,8.550,-64.050,-37.650
57.75,1,-5.449,7.134,-18.802,1262.000,8068.000,856.000,9.900,-65.100,-38.250
57.85,1,-5.694,7.456,-19.241,1066.000,8048.000,872.000,11.100,-64.650,-38.550
57.96,1,-6.086,8.115,-19.520,942.000,8068.000,878.000,11.550,-65.250,-38.850
58.06,1,-6.643,9.133,-19.416,688.000,8040.000,882.000,12.000,-66.450,-38.100
58.16,1,-7.284,10.241,-19.486,730.000,8108.000,1030.000,14.400,-66.600,-38.550
58.27,1,-7.614,10.612,-19.508,530.000,8136.000,918.000,15.750,-66.450,-39.900
58.37,1,-7.879,10.937,-19.893,602.000,8094.000,728.000,17.100,-66.300,-40.050
58.48,1,-7.877,11.106,-19.988,418.000,8078.000,866.000,18.600,-66.300,-40.800
58.59,1,-7.877,11.289,-19.935,372.000,8188.000,898.000,17.700,-67.200,-42.900
58.70,1,-7.815,11.334,-19.861,410.000,8126.000,948.000,17.400,-67.050,-40.800
58.80,1,-7.737,11.337,-19.849,396.000,8174.000,928.000,17.250,-68.100,-41.400
58.91,1,-7.678,11.325,-19.685,288.000,8080.000,964.000,16.650,-68.250,-41.550
59.01,1,-7.664,11.325,-19.481,390.000,8074.000,862.000,16.350,-67.050,-41.550
59.12,1,-7.662,11.359,-19.423,482.000,8076.000,824.000,16.500,-68.850,-42.450
59.21,1,-7.605,11.364,-19.118,298.000,8114.000,928.000,16.200,-70.350,-41.700
59.33,1,-7.602,11.400,-18.939,476.000,8134.000,790.000,17.250,-68.100,-41.700
59.44,1,-7.593,11.357,-18.810,534.000,8150.000,840.000,16.950,-68.400,-41.100
59.53,1,-7.502,11.291,-18.549,464.000,8156.000,836.000,16.500,-68.400,-40.650
59.64,1,-7.330,11.150,-18.151,414.000,8158.000,962.000,16.650,-68.250,-40.500
59.73,1,-7.369,11.081,-17.826,272.000,8200.000,922.000,15.600,-69.000,-40.050
59.83,1,-7.508,10.907,-17.500,446.000,8180.000,918.000,17.100,-68.250,-40.800
59.95,1,-7.386,10.807,-17.070,498.000,8192.000,968.000,14.850,-68.550,-40.050
60.06,1,-7.345,10.677,-16.620,480.000,8144.000,968.000,14.700,-68.400,-39.900
60.17,1,-7.403,10.403,-16.217,492.000,8186.000,896.000,16.200,-69.150,-41.100
60.26,1,-7.526,10.175,-15.846,582.000,8144.000,956.000,15.000,-67.650,-38.850
60.37,1,-7.597,9.905,-15.365,554.000,8018.000,826.000,13.950,-68.100,-39.150
60.47,1,-7.649,9.501,-14.759,610.000,8090.000,890.000,14.850,-67.800,-40.500
60.58,1,-7.714,8.916,-14.148,672.000,8120.000,954.000,13.650,-65.850,-38.250
60.67,1,-7.849,8.152,-13.362,754.000,8058.000,986.000,12.600,-65.550,-39.000
60.78,1,-8.109,7.285,-12.397,592.000,8002.000,1194.000,11.550,-66.450,-36.900
60.89,1,-8.069,6.879,-11.167,896.000,7972.000,1266.000,11.250,-67.200,-38.100
60.99,1,-7.775,6.815,-10.553,1006.000,7958.000,1458.000,10.500,-64.500,-36.600
61.10,1,-7.562,6.644,-9.480,1214.000,8002.000,1426.000,10.350,-66.300,-35.250
61.20,1,-7.310,6.426,-8.703,890.000,8010.000,1266.000,9.150,-67.050,-35.700
61.30,1,-7.038,6.186,-8.152,950.000,8066.000,1066.000,7.800,-65.250,-34.350
61.41,1,-6.873,5.951,-7.748,800.000,8062.000,1182.000,8.850,-65.550,-35.700
61.59,1,-6.702,5.612,-6.996,1094.000,8036.000,1230.000,7.650,-66.300,-34.950
61.63,1,-6.658,5.165,-6.273,1088.000,8006.000,1210.000,6.900,-65.550,-34.950
61.85,1,-6.643,4.720,-5.573,1126.000,8048.000,1192.000,7.500,-66.000,-35.850
61.88,1,-6.567,4.570,-5.675,1282.000,8046.000,1062.000,6.300,-63.300,-35.550
61.97,1,-6.426,4.601,-5.624,1372.000,7966.000,1190.000,7.650,-64.650,-36.000
62.03,1,-6.412,4.620,-6.362,1180.000,8240.000,1004.000,4.500,-64.050,-36.900
62.15,1,-6.655,4.448,-4.368,842.000,8000.000,1180.000,6.600,-64.650,-36.750
62.24,1,-6.471,4.251,-4.510,1048.000,7964.000,1500.000,5.400,-63.900,-36.750
62.39,1,-6.538,4.358,-4.787,1152.000,8054.000,1330.000,4.200,-63.150,-34.950
62.46,1,-6.685,4.631,-5.772,1260.000,7984.000,1270.000,5.250,-65.250,-35.850
62.56,1,-6.735,4.758,-5.924,1300.000,7980.000,1288.000,7.050,-65.700,-35.850
62.66,1,-6.660,4.737,-6.005,1188.000,7974.000,1322.000,6.600,-65.550,-36.000
62.76,1,-6.531,4.612,-5.831,1126.000,7868.000,1072.000,7.500,-64.950,-36.150
62.87,1,-6.479,4.688,-5.441,1164.000,8010.000,1418.000,6.000,-65.700,-35.100
62.96,1,-6.348,4.826,-4.862,1196.000,7986.000,1322.000,6.900,-63.900,-36.000
63.07,1,-6.221,5.122,-4.004,1238.000,7930.000,1226.000,6.600,-64.650,-35.250
63.20,1,-6.077,5.292,-3.436,1072.000,8032.000,1412.000,6.750,-66.450,-34.050
63.34,1,-6.027,5.206,-3.187,1098.000,8052.000,1104.000,7.350,-62.400,-33.000
63.40,1,-6.098,5.242,-2.251,1216.000,8020.000,1084.000,6.300,-65.250,-35.550
63.53,1,-5.893,5.182,-1.806,792.000,7916.000,778.000,7.050,-63.300,-34.800
63.60,1,-6.019,5.064,-1.574,944.000,7996.000,1250.000,6.150,-65.100,-36.750
63.72,1,-6.371,4.865,-1.514,1164.000,8060.000,1688.000,6.150,-63.900,-36.000
63.81,1,-6.662,4.401,-1.184,1318.000,7992.000,1644.000,6.300,-63.000,-34.800
63.92,1,-6.617,4.214,-1.838,1040.000,7932.000,1256.000,6.600,-63.150,-36.750
64.21,1,-6.434,4.036,-3.063,1078.000,8000.000,1454.000,5.700,-63.900,-35.700
64.23,1,-6.566,4.137,-3.691,1210.000,8008.000,1044.000,6.300,-64.050,-36.600
64.24,1,-6.701,4.117,-3.342,1148.000,7968.000,1480.000,7.050,-64.050,-37.350
64.33,1,-6.545,4.043,-3.109,1822.000,7980.000,1064.000,5.700,-63.600,-37.200
64.45,1,-6.445,4.019,-3.204,1168.000,7936.000,1484.000,6.000,-64.950,-35.550
64.55,1,-6.483,4.017,-3.456,1234.000,8002.000,1294.000,5.250,-64.050,-36.600
64.65,1,-6.495,4.042,-3.698,1210.000,8036.000,1194.000,6.750,-64.050,-36.900
64.75,1,-6.461,4.119,-4.011,1440.000,7996.000,1296.000,5.400,-62.700,-35.700
64.86,1,-6.487,4.087,-4.192,1372.000,7968.000,1254.000,6.300,-64.500,-35.550
64.96,1,-6.445,4.036,-4.351,1384.000,7954.000,1256.000,6.000,-63.750,-35.850
65.08,1,-6.392,4.020,-4.442,1332.000,8024.000,1344.000,5.400,-62.700,-37.200
65.17,1,-6.343,3.968,-4.589,1264.000,8032.000,1316.000,6.000,-63.750,-34.800
65.28,1,-6.390,3.936,-4.820,1210.000,7924.000,1294.000,4.800,-63.300,-35.100
65.38,1,-6.433,3.967,-4.742,1406.000,8006.000,1400.000,6.150,-63.900,-35.700
65.49,1,-6.263,4.039,-3.701,1588.000,8024.000,1352.000,6.150,-65.100,-37.200
65.58,1,-5.908,4.578,-3.283,1064.000,7968.000,818.000,7.350,-62.700,-36.000
65.69,1,-5.669,4.828,-2.482,1190.000,8098.000,1570.000,5.400,-63.150,-36.000
65.80,1,-5.584,4.716,-2.439,1012.000,7906.000,1114.000,4.650,-64.650,-32.700
65.90,1,-5.912,4.459,-3.139,1644.000,8162.000,1444.000,5.400,-64.650,-35.700
66.01,1,-6.039,4.219,-3.632,1482.000,7970.000,1174.000,5.250,-64.500,-35.550
66.11,1,-5.923,4.456,-3.566,1570.000,8022.000,992.000,5.250,-64.950,-34.050
66.21,1,-5.637,4.546,-3.407,1136.000,8104.000,1366.000,5.700,-64.350,-36.750
66.34,1,-5.781,4.391,-3.409,970.000,7830.000,778.000,5.250,-63.300,-35.550
