time,IMU#,roll,pitch,yaw,accelx,accely,accelz,compassx,compassy,compassz
0.12,1,-0.322,0.159,-0.147,2.170,7.609,0.912,-6.600,-26.400,-46.800
0.21,1,-0.285,0.219,-0.084,2.189,7.592,0.861,-8.100,-25.950,-45.600
0.31,1,-0.163,0.212,-0.039,2.100,7.596,0.982,-6.750,-26.550,-46.200
0.44,1,-0.117,0.186,-0.005,2.000,7.664,0.990,-7.500,-26.550,-45.150
0.52,1,-0.101,0.239,-0.019,2.078,7.625,0.934,-7.500,-27.000,-45.450
0.62,1,-0.070,0.351,-0.086,2.125,7.656,0.912,-7.500,-26.550,-45.450
0.74,1,-0.005,0.451,-0.160,2.125,7.689,0.924,-7.500,-26.100,-45.450
0.82,1,0.014,0.502,-0.197,2.109,7.666,0.992,-7.500,-27.750,-44.700
0.94,1,-0.026,0.478,-0.187,2.105,7.678,0.961,-7.500,-25.800,-46.950
1.04,1,-0.069,0.400,-0.184,1.982,7.658,0.893,-7.800,-26.550,-45.900
1.16,1,-0.075,0.384,-0.122,2.068,7.594,0.936,-7.500,-25.350,-45.900
1.24,1,-0.054,0.434,-0.071,2.115,7.672,0.955,-6.750,-25.800,-46.200
1.36,1,-0.059,0.409,-0.067,2.066,7.703,0.924,-6.300,-26.100,-46.650
1.46,1,-0.113,0.380,-0.044,2.006,7.713,1.232,-7.050,-27.000,-44.400
1.57,1,-0.488,0.399,-0.001,1.990,7.680,1.125,-7.500,-27.000,-45.900
1.67,1,-1.024,0.550,-0.105,2.002,7.654,1.184,-7.050,-25.800,-46.950
1.77,1,-1.756,0.623,-0.664,1.996,7.709,1.404,-8.400,-27.150,-47.100
1.87,1,-2.912,0.855,-1.169,2.014,7.715,1.852,-7.650,-25.200,-45.600
1.99,1,-4.735,1.194,-1.769,2.086,7.656,1.723,-6.300,-25.350,-48.000
2.09,1,-6.686,1.385,-2.471,2.027,7.547,1.680,-6.150,-22.800,-49.800
2.19,1,-8.529,1.236,-3.182,2.123,7.551,2.307,-6.600,-23.550,-51.900
2.31,1,-10.723,1.231,-3.430,1.951,7.453,2.418,-7.350,-22.050,-52.650
2.41,1,-12.812,1.520,-4.014,1.951,7.246,2.479,-7.500,-21.900,-54.000
2.51,1,-14.709,1.551,-4.811,2.066,7.316,3.047,-8.100,-20.850,-56.700
2.61,1,-17.019,1.847,-4.834,1.869,7.158,3.480,-6.900,-19.650,-55.650
2.71,1,-19.569,2.342,-5.001,2.004,7.076,3.516,-6.000,-19.050,-58.500
2.83,1,-22.036,2.258,-5.400,1.937,6.770,3.463,-3.450,-18.150,-58.950
2.93,1,-23.973,1.691,-5.833,1.992,6.615,3.477,-4.500,-15.150,-60.600
3.03,1,-25.114,1.138,-6.128,2.027,6.482,3.846,-5.700,-14.550,-60.900
3.13,1,-25.713,0.921,-6.102,1.771,6.514,4.061,-5.550,-15.150,-62.550
3.24,1,-25.987,0.818,-6.090,1.850,6.482,4.162,-6.900,-13.800,-63.000
3.34,1,-26.139,0.793,-6.039,1.939,6.455,4.375,-5.700,-13.800,-61.950
3.45,1,-26.361,0.794,-6.130,2.041,6.438,4.332,-6.300,-13.950,-62.550
3.54,1,-26.530,0.838,-6.164,2.008,6.428,4.385,-6.000,-13.950,-62.850
3.65,1,-26.632,0.666,-6.211,1.986,6.395,4.139,-5.250,-14.850,-64.050
3.76,1,-26.490,0.461,-5.993,1.830,6.451,4.486,-6.150,-12.600,-63.450
3.86,1,-26.376,0.420,-5.904,2.078,6.471,4.385,-6.150,-14.550,-63.000
3.97,1,-26.243,0.497,-5.683,2.006,6.441,4.422,-6.150,-13.050,-62.250
4.08,1,-26.238,0.363,-5.570,2.092,6.486,4.398,-6.600,-14.250,-63.000
4.17,1,-26.215,0.200,-5.371,2.008,6.494,4.486,-6.900,-15.000,-61.200
4.28,1,-26.359,0.259,-4.947,1.898,6.426,4.508,-6.300,-13.650,-63.300
4.39,1,-26.552,0.167,-4.808,1.998,6.365,4.357,-5.550,-12.900,-62.550
4.49,1,-26.686,0.120,-4.621,1.877,6.484,4.313,-5.400,-13.800,-62.250
4.60,1,-26.700,0.097,-4.537,2.008,6.404,4.436,-7.050,-14.400,-62.850
4.70,1,-26.740,0.091,-4.311,1.926,6.361,4.377,-7.050,-12.900,-62.850
4.81,1,-26.738,0.037,-4.163,1.914,6.398,4.432,-6.600,-13.050,-63.000
4.91,1,-26.775,0.011,-4.092,1.902,6.416,4.484,-6.750,-12.000,-62.100
5.02,1,-26.808,-0.116,-4.049,2.047,6.352,4.455,-7.350,-13.050,-63.000
5.13,1,-26.841,-0.168,-3.925,2.045,6.418,4.418,-5.700,-14.250,-62.700
5.23,1,-26.875,-0.196,-3.769,2.043,6.416,4.426,-6.600,-12.600,-62.700
5.33,1,-26.951,-0.327,-3.603,1.936,6.307,4.414,-6.750,-13.200,-64.350
5.45,1,-26.949,-0.444,-3.518,1.979,6.395,4.430,-7.650,-11.850,-63.450
5.55,1,-26.899,-0.429,-3.356,1.986,6.373,4.432,-6.600,-12.600,-63.000
5.65,1,-26.892,-0.413,-3.166,2.031,6.445,4.445,-7.800,-13.650,-61.800
5.76,1,-26.989,-0.489,-2.938,1.945,6.395,4.449,-8.250,-13.200,-60.600
5.85,1,-27.033,-0.451,-2.829,1.984,6.406,4.459,-6.150,-11.850,-64.200
5.97,1,-27.035,-0.519,-2.704,1.967,6.385,4.484,-7.350,-13.500,-63.450
6.07,1,-27.024,-0.568,-2.584,2.000,6.387,4.441,-6.600,-12.600,-64.200
6.16,1,-27.051,-0.579,-2.427,2.109,6.361,4.494,-5.700,-14.250,-62.700
6.26,1,-27.080,-0.660,-2.296,1.986,6.389,4.488,-5.700,-13.050,-63.000
6.39,1,-27.150,-0.665,-2.169,1.953,6.352,4.424,-7.500,-12.900,-64.350
6.48,1,-27.223,-0.639,-2.116,2.035,6.318,4.555,-6.300,-12.450,-62.850
6.58,1,-27.288,-0.619,-2.090,2.023,6.357,4.414,-6.750,-13.200,-62.850
6.70,1,-27.333,-0.687,-1.912,1.969,6.336,4.439,-6.150,-13.500,-64.500
6.79,1,-27.334,-0.770,-1.779,1.965,6.330,4.438,-7.050,-12.000,-63.600
6.89,1,-27.298,-0.797,-1.644,1.986,6.385,4.434,-5.700,-12.300,-62.700
6.99,1,-27.245,-0.822,-1.556,1.984,6.355,4.518,-6.150,-14.250,-62.700
7.12,1,-27.284,-0.804,-1.513,1.967,6.307,4.488,-6.750,-12.900,-63.300
7.22,1,-27.356,-0.769,-1.479,2.076,6.387,4.512,-5.700,-15.000,-63.450
7.32,1,-27.452,-0.839,-1.411,2.029,6.293,4.492,-7.500,-12.900,-63.300
7.42,1,-27.472,-0.877,-1.353,2.039,6.344,4.469,-7.050,-12.450,-62.850
7.52,1,-27.445,-0.932,-1.194,1.977,6.393,4.498,-5.700,-13.050,-61.950
7.63,1,-27.399,-0.960,-1.105,1.932,6.352,4.484,-8.250,-13.200,-63.300
7.73,1,-27.273,-0.950,-1.002,1.971,6.379,4.490,-7.050,-12.900,-63.600
7.83,1,-27.156,-0.964,-1.042,2.068,6.344,4.402,-7.350,-13.500,-63.750
7.93,1,-26.850,-0.984,-0.935,2.027,6.256,3.885,-4.800,-13.200,-64.050
8.05,1,-25.735,-1.070,-0.904,2.145,6.355,3.570,-7.050,-12.900,-63.300
8.15,1,-23.807,-1.228,-0.324,1.986,6.666,3.641,-6.900,-14.550,-61.650
8.25,1,-21.527,-1.285,0.384,1.912,6.914,3.965,-7.800,-15.900,-59.250
8.35,1,-19.374,-1.148,0.942,1.912,6.928,3.855,-7.650,-17.400,-58.200
8.47,1,-17.543,-0.792,1.461,1.906,7.129,3.711,-8.400,-18.150,-58.200
8.57,1,-15.971,-0.798,1.139,2.105,7.115,3.068,-7.350,-19.350,-57.150
8.67,1,-14.506,-0.802,1.109,1.918,7.262,3.113,-6.300,-20.700,-55.500
8.77,1,-13.171,-0.905,0.726,2.061,7.229,2.871,-6.600,-20.400,-54.600
8.88,1,-11.919,-0.876,0.635,2.105,7.301,2.814,-7.050,-20.700,-54.300
8.99,1,-10.776,-0.951,0.229,2.131,7.391,2.293,-7.050,-22.650,-54.000
9.08,1,-9.544,-0.928,0.019,2.023,7.408,2.303,-7.500,-23.850,-51.750
9.18,1,-8.335,-0.834,-0.465,2.102,7.480,2.062,-8.100,-24.750,-50.100
9.30,1,-7.131,-0.836,-0.943,2.100,7.395,1.949,-7.800,-23.400,-49.500
9.40,1,-5.909,-0.872,-1.295,2.084,7.529,1.824,-7.500,-24.150,-48.000
9.51,1,-4.755,-1.035,-1.627,2.043,7.525,1.764,-8.550,-25.050,-47.400
9.62,1,-3.812,-0.988,-1.516,2.072,7.736,1.646,-9.600,-25.950,-46.050
9.72,1,-3.080,-0.865,-1.442,2.107,7.553,1.496,-8.400,-25.200,-46.350
9.82,1,-2.545,-0.718,-1.429,2.217,7.551,1.342,-8.400,-25.500,-46.050
9.92,1,-2.033,-0.552,-1.044,2.207,7.584,1.086,-8.850,-26.400,-46.050
10.04,1,-1.514,-0.947,-0.482,2.027,7.648,1.250,-6.600,-24.450,-46.800
10.14,1,-1.143,-1.250,0.190,1.975,7.691,1.148,-8.400,-27.450,-44.550
10.24,1,-0.822,-1.396,0.602,1.943,7.730,1.111,-7.500,-26.100,-44.700
10.34,1,-0.624,-1.417,0.774,1.975,7.699,1.074,-7.650,-25.950,-45.300
10.45,1,-0.493,-1.340,0.703,2.043,7.643,1.016,-9.150,-26.400,-44.550
10.56,1,-0.429,-1.315,0.466,2.107,7.613,0.984,-9.600,-26.400,-45.300
10.66,1,-0.375,-1.168,0.446,2.170,7.699,0.910,-9.150,-25.200,-43.500
10.77,1,-0.380,-1.191,0.380,2.168,7.590,1.035,-7.500,-27.000,-44.700
10.87,1,-0.498,-1.007,0.747,2.115,7.760,1.041,-8.400,-26.700,-46.800
10.98,1,-0.668,-0.900,0.669,2.180,7.652,1.084,-8.100,-26.700,-45.300
11.07,1,-0.924,-0.895,0.666,2.104,7.688,1.062,-8.100,-26.700,-45.300
11.19,1,-1.133,-0.905,0.651,2.076,7.576,1.027,-9.300,-25.350,-45.900
11.29,1,-1.264,-0.901,0.701,2.145,7.600,1.061,-9.750,-26.100,-46.200
11.39,1,-1.329,-0.964,0.676,2.086,7.555,1.072,-8.250,-26.100,-46.200
11.50,1,-1.299,-0.953,0.675,2.125,7.602,1.090,-7.500,-26.100,-45.900
11.60,1,-1.207,-0.910,0.691,1.988,7.629,0.951,-8.400,-26.700,-44.250
11.71,1,-1.026,-0.770,0.457,2.215,7.775,1.223,-8.400,-27.900,-46.050
11.83,1,-1.068,-1.012,0.306,1.982,7.563,1.199,-7.500,-27.000,-44.400
11.93,1,-1.230,-0.565,0.272,2.230,7.654,1.156,-6.900,-25.950,-45.600
12.03,1,-1.449,-0.512,0.198,2.143,7.666,1.027,-7.650,-26.700,-46.050
12.13,1,-1.588,-0.524,0.222,2.152,7.555,1.121,-8.250,-26.100,-45.150
12.24,1,-1.743,-0.671,0.369,2.064,7.639,1.100,-7.500,-27.000,-45.900
12.34,1,-1.851,-0.844,0.305,2.059,7.551,1.129,-8.250,-25.800,-45.450
12.46,1,-1.909,-0.769,0.291,2.061,7.615,1.068,-9.600,-26.400,-45.300
12.55,1,-1.845,-0.565,0.309,2.180,7.586,1.268,-7.800,-26.100,-45.900
12.66,1,-1.852,-0.540,0.253,2.141,7.576,1.293,-7.050,-25.050,-46.650
12.77,1,-1.923,-0.448,0.300,2.119,7.695,1.109,-8.400,-26.400,-45.600
12.87,1,-1.951,-0.520,0.325,2.057,7.631,1.191,-8.400,-26.400,-47.550
12.96,1,-1.968,-0.543,0.359,2.070,7.664,1.248,-8.250,-23.850,-46.650
13.08,1,-2.007,-0.692,0.245,1.984,7.689,1.262,-8.100,-25.950,-45.600
13.18,1,-2.168,-0.577,0.186,2.018,7.514,1.117,-6.750,-26.550,-46.650
13.28,1,-2.094,-0.170,0.203,2.330,7.641,1.135,-8.100,-25.950,-46.050
13.38,1,-2.023,-0.494,0.226,2.115,7.652,1.209,-7.050,-26.550,-46.650
13.49,1,-2.017,-0.545,0.244,2.025,7.508,1.160,-8.850,-26.400,-48.300
13.59,1,-1.829,-0.457,0.342,2.014,7.592,1.129,-9.300,-24.150,-46.950
13.68,1,-1.511,-0.478,0.481,2.045,7.566,1.168,-8.250,-26.550,-45.450
13.79,1,-1.266,-0.540,0.470,2.139,7.639,1.164,-7.350,-26.700,-44.850
13.91,1,-1.163,-0.764,0.303,2.043,7.658,1.111,-6.750,-25.050,-45.900
14.01,1,-1.031,-0.596,0.245,2.080,7.588,1.148,-8.850,-25.950,-46.350
14.11,1,-0.961,-0.561,0.019,2.205,7.570,1.100,-7.800,-26.550,-45.450
14.21,1,-0.965,-0.419,0.104,2.168,7.660,1.080,-8.250,-28.050,-45.150
14.33,1,-0.942,-0.474,-0.009,2.187,7.582,1.076,-9.000,-26.100,-45.450
14.44,1,-0.976,-0.730,-0.039,2.061,7.574,1.031,-8.550,-26.100,-46.650
14.53,1,-0.955,-0.669,-0.057,2.104,7.666,0.955,-7.350,-25.200,-45.600
14.63,1,-0.805,-0.652,-0.060,2.064,7.488,1.045,-9.900,-24.750,-45.300
14.73,1,-0.672,-0.300,0.026,2.238,7.666,1.057,-8.250,-25.800,-46.200
14.85,1,-0.626,-0.386,-0.022,2.156,7.635,1.070,-8.250,-24.600,-45.900
14.95,1,-0.637,-0.629,-0.175,2.080,7.656,0.971,-8.100,-26.400,-44.550
15.05,1,-0.612,-0.691,-0.209,2.064,7.557,1.088,-7.050,-27.000,-45.900
15.15,1,-0.607,-0.471,-0.055,2.170,7.607,1.029,-9.000,-27.000,-45.450
15.26,1,-0.618,-0.308,-0.075,2.182,7.611,1.117,-8.250,-27.000,-44.700
15.36,1,-0.785,-0.592,-0.190,2.074,7.645,1.062,-8.250,-27.000,-45.450
15.46,1,-0.934,-0.563,-0.140,2.078,7.578,1.049,-7.650,-25.950,-45.300
15.58,1,-1.066,-0.568,-0.096,2.109,7.648,0.982,-8.550,-27.300,-46.200
15.66,1,-1.128,-0.711,-0.157,2.064,7.566,0.969,-7.500,-25.800,-44.700
