time,IMU#,roll,pitch,yaw,accelx,accely,accelz,compassx,compassy,compassz
0.03,1,0.408,-0.771,-0.282,2.350,7.352,-31.999,-26.727,-38.062,-23.056
0.13,1,0.433,-0.583,-0.298,2.369,7.359,-31.999,-26.577,-39.862,-25.156
0.24,1,0.462,-0.415,-0.257,2.398,7.289,-31.999,-25.527,-39.112,-23.206
0.34,1,0.432,-0.408,-0.226,2.432,7.336,-31.999,-25.977,-40.162,-23.806
0.44,1,0.385,-0.428,-0.225,2.408,7.301,-31.999,-25.677,-38.512,-23.806
0.54,1,0.321,-0.428,-0.301,2.357,7.355,-31.999,-25.527,-39.862,-22.456
0.65,1,0.278,-0.364,-0.293,2.332,7.322,-31.999,-25.227,-41.212,-22.756
0.76,1,0.248,-0.146,-0.293,2.404,7.285,-31.999,-23.427,-38.512,-22.756
0.86,1,0.232,-0.053,-0.272,2.441,7.326,-31.999,-25.227,-38.962,-22.306
0.96,1,0.210,-0.115,-0.266,2.365,7.375,-31.999,-24.477,-39.712,-24.256
1.07,1,0.432,0.631,-0.152,2.068,7.385,-31.999,-26.427,-40.462,-23.506
1.18,1,0.494,1.066,0.478,2.391,7.436,-31.999,-24.477,-38.962,-23.506
1.28,1,0.594,1.820,1.046,2.053,7.469,-31.999,-25.527,-39.562,-23.206
1.38,1,0.682,3.092,1.884,2.170,7.523,-31.999,-22.977,-39.262,-22.306
1.48,1,0.463,4.758,1.911,2.117,7.363,-31.999,-25.077,-39.562,-21.856
1.59,1,0.045,6.033,2.081,2.195,7.387,-31.999,-24.777,-39.562,-22.906
1.70,1,-0.378,7.059,2.235,2.254,7.283,-31.999,-26.427,-39.712,-23.506
1.80,1,-0.790,7.674,2.008,2.314,7.346,-31.999,-25.527,-38.662,-23.206
1.91,1,-1.072,7.408,1.704,2.018,7.289,-31.999,-27.177,-37.312,-25.306
2.02,1,-1.139,7.113,1.623,1.746,7.475,-31.999,-26.727,-38.962,-24.556
2.13,1,-1.384,6.729,1.624,1.936,7.373,-31.999,-24.927,-38.962,-24.256
2.23,1,-1.799,6.711,1.888,1.951,7.264,-31.999,-26.727,-37.012,-26.356
2.33,1,-2.253,7.222,2.136,2.012,7.238,-31.999,-25.977,-36.112,-25.606
2.43,1,-2.603,7.725,2.599,2.045,7.277,-31.999,-25.527,-37.162,-26.656
2.54,1,-2.755,8.762,2.945,2.162,7.236,-31.999,-25.977,-37.762,-28.606
2.65,1,-3.074,9.130,2.911,1.896,7.119,-31.999,-25.077,-35.962,-28.456
2.75,1,-3.300,9.140,2.890,1.879,7.104,-31.999,-26.577,-35.962,-28.156
2.85,1,-3.225,9.569,2.606,1.906,7.018,-31.999,-25.677,-37.012,-27.856
2.94,1,-3.087,10.028,2.423,2.076,6.850,-31.999,-25.977,-35.062,-27.856
3.06,1,-3.645,8.138,3.409,1.816,7.404,-31.999,-25.827,-36.412,-29.956
3.16,1,-4.146,8.646,2.817,1.742,6.865,-31.999,-24.777,-34.462,-28.156
3.27,1,-4.572,9.330,2.433,1.807,6.969,-31.999,-23.727,-34.612,-30.556
3.38,1,-4.630,9.210,2.488,1.787,6.814,-31.999,-25.527,-34.462,-29.506
3.48,1,-4.714,10.002,2.291,1.818,6.918,-31.999,-25.827,-33.262,-29.956
3.58,1,-4.921,11.017,1.455,1.520,6.971,-31.999,-27.027,-34.012,-30.256
3.68,1,-4.658,12.128,1.459,2.266,6.691,-31.999,-26.277,-32.512,-28.756
3.78,1,-4.884,12.169,1.590,2.275,6.797,-31.999,-26.427,-33.412,-31.306
3.88,1,-4.971,12.748,0.679,2.131,6.662,-31.999,-29.127,-32.662,-29.806
4.00,1,-5.309,12.490,0.352,1.891,6.846,-31.999,-27.777,-32.062,-31.006
4.09,1,-5.986,12.713,0.141,1.943,6.824,-31.999,-26.727,-30.262,-31.306
4.20,1,-6.484,13.201,0.093,1.998,6.697,-31.999,-28.077,-29.362,-31.756
4.30,1,-6.648,13.913,-0.243,2.250,6.459,-31.999,-27.327,-31.312,-32.956
4.40,1,-6.367,13.757,-0.253,2.303,6.654,-31.999,-26.727,-30.712,-30.556
4.52,1,-6.422,13.675,-0.716,2.096,6.619,-31.999,-27.927,-31.012,-31.306
4.62,1,-6.832,13.912,-1.077,1.963,6.666,-31.999,-26.727,-29.062,-31.906
4.73,1,-7.246,14.314,-1.046,1.961,6.557,-31.999,-28.527,-30.862,-31.006
4.83,1,-7.400,14.762,-0.731,2.002,6.506,-31.999,-25.827,-28.612,-31.456
4.94,1,-7.529,14.604,-0.199,2.225,6.588,-31.999,-28.077,-30.562,-32.206
5.03,1,-7.707,14.625,0.074,1.912,6.363,-31.999,-27.027,-31.612,-32.506
5.15,1,-7.724,15.501,0.483,2.072,6.482,-31.999,-27.327,-30.562,-32.956
5.25,1,-8.164,16.467,0.297,2.043,6.375,-31.999,-27.777,-30.112,-32.506
5.35,1,-8.508,17.015,0.097,1.941,6.377,-31.999,-27.477,-29.962,-32.656
5.45,1,-8.916,17.575,0.119,2.035,6.473,-31.999,-26.577,-28.612,-33.256
5.57,1,-9.313,18.550,-0.007,1.758,6.078,-31.999,-27.477,-29.512,-33.406
5.67,1,-9.578,21.964,-0.590,2.727,6.355,-31.999,-27.777,-30.112,-33.706
5.77,1,-11.171,22.791,-1.815,2.043,6.211,-31.999,-28.527,-27.412,-33.706
5.87,1,-12.120,21.776,-1.666,1.668,5.973,-31.999,-26.727,-26.362,-33.106
5.97,1,-11.994,22.039,-1.009,2.129,6.068,-31.999,-27.327,-27.412,-35.056
6.09,1,-12.168,22.770,-1.045,1.834,6.027,-31.999,-27.927,-26.812,-34.156
6.19,1,-12.359,23.559,-0.898,1.891,6.031,-31.999,-28.227,-26.362,-35.656
6.29,1,-12.596,24.661,-0.648,1.963,5.859,-31.999,-28.077,-27.712,-36.256
6.39,1,-13.225,25.642,-0.118,2.049,6.021,-31.999,-27.177,-26.362,-35.656
6.50,1,-14.152,27.148,-0.588,2.217,5.842,-31.999,-26.727,-25.162,-36.406
6.61,1,-13.952,27.003,-0.770,1.887,5.768,-31.999,-26.277,-26.212,-35.506
6.72,1,-13.057,27.247,0.303,2.049,5.797,-31.999,-27.327,-26.212,-36.256
6.82,1,-13.652,28.154,0.222,2.031,5.758,-31.999,-27.027,-24.562,-36.256
6.92,1,-15.112,29.121,-0.130,1.994,5.604,-31.999,-27.177,-25.162,-35.656
7.02,1,-16.421,29.808,-0.566,1.943,5.326,-31.999,-27.327,-23.812,-36.256
7.13,1,-16.841,29.878,-0.531,1.912,5.455,-31.999,-27.177,-24.862,-37.156
7.24,1,-16.772,30.535,-0.589,1.934,5.332,-31.999,-27.477,-23.212,-36.856
7.34,1,-15.767,29.531,-0.447,1.779,5.473,-31.999,-27.927,-25.162,-35.656
7.44,1,-15.391,28.935,-0.268,1.963,5.572,-31.999,-27.477,-24.112,-37.906
7.54,1,-16.193,29.121,-0.217,1.760,5.676,-31.999,-26.427,-22.912,-38.206
7.65,1,-18.165,30.442,-1.000,1.916,5.432,-31.999,-28.077,-23.512,-37.756
7.75,1,-19.400,31.691,-1.383,1.852,5.098,-31.999,-27.327,-19.612,-38.806
7.85,1,-19.171,31.099,-0.299,2.049,5.006,-31.999,-26.727,-20.962,-37.456
7.98,1,-19.356,29.299,2.120,1.168,5.441,-31.999,-25.227,-22.012,-40.906
8.08,1,-21.431,31.747,0.965,1.721,5.100,-31.999,-24.327,-19.912,-40.006
8.18,1,-22.600,33.111,0.184,1.883,4.617,-31.999,-26.577,-19.612,-41.356
8.28,1,-22.119,32.720,0.909,1.631,4.854,-31.999,-24.027,-21.562,-40.606
8.38,1,-21.683,32.577,1.185,1.707,4.830,-31.999,-24.477,-19.762,-41.206
8.48,1,-21.822,31.169,2.097,1.104,5.154,-31.999,-23.577,-19.912,-41.806
8.59,1,-23.985,32.885,1.169,1.406,4.795,-31.999,-22.827,-19.612,-42.556
8.71,1,-26.239,35.196,-0.790,1.723,4.316,-31.999,-26.727,-17.812,-41.956
8.81,1,-26.440,35.030,-0.404,1.629,4.246,-31.999,-26.277,-16.012,-42.856
8.91,1,-26.394,35.069,0.371,1.686,4.324,-31.999,-25.527,-17.212,-42.556
9.01,1,-26.595,35.244,0.175,1.531,4.252,-31.999,-24.777,-16.012,-42.856
9.13,1,-26.443,35.294,0.093,1.611,4.350,-31.999,-24.327,-16.012,-42.556
9.23,1,-25.718,35.190,0.097,1.365,4.471,-31.999,-25.227,-15.412,-42.706
9.33,1,-23.941,34.958,0.489,1.486,4.545,-31.999,-25.677,-18.112,-42.706
9.43,1,-21.522,34.335,1.248,1.594,4.836,-31.999,-24.777,-18.412,-42.556
9.53,1,-19.479,34.170,1.765,1.785,5.088,-31.999,-25.977,-20.512,-40.156
9.64,1,-18.193,34.106,1.890,1.703,5.186,-31.999,-25.977,-21.712,-40.456
9.74,1,-17.081,34.142,1.846,1.807,5.184,-31.999,-26.577,-22.312,-38.506
9.84,1,-15.914,33.967,2.139,1.736,5.330,-31.999,-25.677,-25.162,-38.656
9.94,1,-15.461,34.145,2.214,1.879,5.410,-31.999,-27.777,-23.512,-37.756
10.06,1,-16.004,34.440,1.945,1.789,5.367,-31.999,-26.277,-23.062,-39.256
10.16,1,-17.148,35.276,1.534,1.916,5.352,-31.999,-26.277,-21.862,-38.806
10.26,1,-17.909,35.573,1.402,1.811,5.082,-31.999,-27.777,-21.112,-39.556
10.36,1,-17.794,35.570,1.599,1.717,5.035,-31.999,-25.977,-20.962,-39.406
10.48,1,-16.976,35.190,2.107,1.609,5.125,-31.999,-25.677,-22.012,-39.706
10.58,1,-15.954,35.474,2.254,1.455,5.230,-31.999,-27.177,-22.012,-38.956
10.68,1,-14.306,36.008,2.403,1.859,5.445,-31.999,-27.177,-24.112,-37.456
10.80,1,-12.294,35.573,3.099,1.820,5.643,-31.999,-27.777,-23.812,-36.256
10.90,1,-10.641,35.056,3.779,1.930,5.650,-31.999,-28.227,-25.162,-36.406
11.00,1,-9.592,34.586,4.059,1.955,5.887,-31.999,-26.577,-25.462,-36.256
11.12,1,-8.512,34.391,4.227,1.988,5.781,-31.999,-27.477,-25.612,-34.906
11.21,1,-7.458,33.930,4.351,1.852,5.979,-31.999,-27.927,-28.762,-34.606
11.31,1,-6.923,33.455,4.565,1.686,6.123,-31.999,-27.477,-27.112,-34.906
11.41,1,-7.774,34.327,4.571,1.920,6.023,-31.999,-28.527,-27.712,-34.306
11.51,1,-8.873,36.194,4.056,1.975,5.779,-31.999,-27.777,-26.212,-35.506
11.64,1,-8.466,37.015,3.870,1.986,5.623,-31.999,-28.077,-25.762,-34.006
11.73,1,-6.354,35.808,4.675,1.928,6.066,-31.999,-28.077,-26.512,-34.006
11.83,1,-4.562,35.389,4.913,1.920,6.240,-31.999,-28.227,-28.762,-34.156
11.93,1,-3.487,36.357,4.430,2.080,6.238,-31.999,-29.577,-28.162,-31.456
12.05,1,-2.411,36.484,4.370,2.227,6.246,-31.999,-29.277,-28.162,-30.706
12.15,1,-1.116,35.903,4.657,2.145,6.375,-31.999,-30.177,-30.262,-30.106
12.25,1,0.217,35.724,4.801,2.268,6.314,-31.999,-31.527,-30.112,-29.956
12.35,1,1.364,35.266,4.824,2.334,6.453,-31.999,-30.327,-30.112,-30.706
12.46,1,3.105,34.829,5.050,2.316,6.391,-31.999,-30.627,-31.012,-27.106
12.57,1,4.578,33.585,4.943,2.334,6.813,-31.999,-30.327,-32.512,-26.956
12.67,1,5.711,32.618,4.496,2.104,6.826,-31.999,-28.677,-33.112,-25.606
12.79,1,6.510,29.007,4.025,1.863,7.150,-31.999,-29.577,-34.462,-25.456
12.89,1,8.315,29.253,3.555,2.363,6.834,-31.999,-31.527,-35.962,-23.206
12.99,1,9.655,26.250,3.523,2.564,7.041,-31.999,-31.077,-35.512,-22.906
13.09,1,10.419,22.748,3.083,2.537,7.295,-31.999,-31.527,-36.712,-20.656
13.20,1,11.167,19.425,2.269,2.395,6.965,-31.999,-32.877,-38.062,-18.256
13.31,1,11.736,15.107,1.990,2.504,7.279,-31.999,-32.427,-39.712,-17.506
13.40,1,11.520,9.286,1.431,3.330,7.557,-31.999,-28.677,-38.512,-17.956
13.51,1,10.457,2.887,0.601,2.154,7.365,-31.999,-27.327,-39.112,-17.656
13.61,1,9.106,-1.538,0.122,1.754,7.553,-31.999,-28.527,-41.812,-18.856
13.72,1,8.540,-0.275,-0.421,2.391,7.508,-31.999,-29.127,-40.462,-17.506
13.82,1,8.038,1.015,-1.029,2.211,7.316,-31.999,-29.877,-38.512,-17.506
13.92,1,7.193,0.715,-1.404,2.561,7.445,-31.999,-29.127,-39.262,-17.506
14.04,1,6.143,-1.168,-2.008,2.600,7.311,-31.999,-29.427,-38.512,-18.706
14.14,1,5.463,-2.805,-2.537,2.598,7.422,-31.999,-29.127,-39.712,-19.756
14.24,1,4.785,-4.151,-2.395,2.207,7.412,-31.999,-29.427,-38.512,-19.456
14.34,1,3.815,-4.753,-1.711,2.570,7.428,-31.999,-28.227,-40.912,-20.056
14.45,1,3.138,-5.027,-2.093,2.449,7.318,-31.999,-26.427,-40.462,-19.006
14.56,1,2.777,-5.131,-2.415,2.312,7.354,-31.999,-27.177,-40.162,-21.256
14.66,1,2.286,-5.390,-2.462,2.285,7.377,-31.999,-27.027,-39.112,-20.356
14.77,1,2.001,-4.911,-2.314,2.594,7.260,-31.999,-26.727,-38.062,-20.506
14.87,1,1.898,-4.252,-2.314,2.566,7.266,-31.999,-27.027,-39.862,-21.106
14.99,1,1.683,-3.979,-2.414,2.488,7.338,-31.999,-27.177,-39.262,-22.756
15.09,1,1.399,-3.867,-2.459,2.453,7.311,-31.999,-27.927,-39.712,-21.556
15.19,1,1.241,-3.587,-2.431,2.490,7.297,-31.999,-26.427,-38.962,-20.506
15.29,1,1.127,-3.333,-2.384,2.529,7.326,-31.999,-28.677,-38.512,-21.556
15.40,1,0.938,-3.207,-2.345,2.459,7.361,-31.999,-27.777,-39.112,-21.856
15.51,1,0.890,-3.006,-2.305,2.551,7.318,-31.999,-28.527,-40.312,-20.656
15.61,1,0.835,-2.740,-2.301,2.494,7.293,-31.999,-26.577,-39.862,-22.456
15.72,1,0.808,-2.459,-2.308,2.447,7.336,-31.999,-25.977,-39.712,-21.256
15.82,1,0.884,-2.150,-2.250,2.547,7.332,-31.999,-27.177,-38.962,-20.056
