time,IMU#,roll,pitch,yaw,accelx,accely,accelz,compassx,compassy,compassz
0.09,1,-0.544,-0.895,-0.215,2.617,7.270,-31.999,-29.877,-37.762,-19.456
0.21,1,-0.451,-0.717,-0.170,2.699,7.281,-31.999,-30.327,-37.912,-21.406
0.31,1,-0.361,-0.561,-0.117,2.643,7.209,-31.999,-29.277,-39.112,-19.906
0.41,1,-0.357,-0.660,-0.038,2.705,7.256,-31.999,-28.827,-39.562,-20.356
0.51,1,-0.366,-0.696,-0.010,2.566,7.311,-31.999,-28.527,-39.562,-20.656
0.61,1,-0.372,-0.593,0.022,2.588,7.309,-31.999,-29.577,-38.362,-21.106
0.72,1,-0.357,-0.484,0.111,2.680,7.230,-31.999,-30.177,-39.262,-19.456
0.82,1,-0.366,-0.406,0.067,2.641,7.234,-31.999,-29.277,-41.512,-20.356
0.92,1,-0.342,-0.382,-0.036,2.602,7.330,-31.999,-28.527,-39.112,-19.906
1.04,1,-0.295,-0.334,-0.032,2.682,7.266,-31.999,-29.427,-40.162,-19.456
1.14,1,-0.312,-0.298,-0.108,2.660,7.287,-31.999,-29.577,-39.562,-19.906
1.26,1,-0.321,-0.216,-0.221,2.525,7.320,-31.999,-28.677,-38.962,-20.056
1.36,1,-0.361,0.918,-0.546,2.307,7.381,-31.999,-29.427,-38.062,-17.956
1.46,1,-0.596,3.293,-0.460,2.672,7.260,-31.999,-29.427,-37.312,-19.756
1.56,1,-1.040,4.931,-0.160,2.709,7.248,-31.999,-31.077,-38.662,-19.156
1.66,1,-1.669,6.093,-0.196,2.648,7.189,-31.999,-30.327,-38.362,-20.356
1.76,1,-2.363,7.033,-0.413,2.656,7.211,-31.999,-29.877,-38.062,-21.556
1.88,1,-2.985,7.838,-0.570,2.609,7.137,-31.999,-30.177,-36.112,-21.556
1.98,1,-3.630,8.355,-0.624,2.469,7.205,-31.999,-31.677,-35.362,-21.556
2.09,1,-4.215,9.122,-0.671,2.578,7.154,-31.999,-31.677,-35.362,-23.506
2.18,1,-5.008,9.418,-0.428,3.133,6.934,-31.999,-31.077,-34.462,-23.956
2.29,1,-6.253,9.045,0.137,2.551,6.957,-31.999,-30.177,-34.612,-25.606
2.39,1,-7.719,8.675,0.243,2.625,6.689,-31.999,-29.577,-33.262,-27.406
2.51,1,-9.340,7.714,0.363,2.125,6.902,-31.999,-29.127,-33.112,-27.856
2.61,1,-10.122,9.093,0.049,2.195,6.734,-31.999,-28.827,-31.612,-28.456
2.71,1,-11.170,10.151,-0.038,2.230,6.674,-31.999,-29.127,-31.912,-29.356
2.81,1,-12.012,12.383,-0.550,2.391,6.492,-31.999,-30.927,-30.262,-30.106
2.93,1,-12.710,14.537,-0.913,2.527,6.373,-31.999,-31.077,-29.362,-29.956
3.03,1,-13.575,16.308,-1.669,2.557,6.338,-31.999,-31.527,-30.562,-30.706
3.13,1,-14.625,17.252,-2.319,2.719,6.180,-31.999,-30.177,-28.762,-30.556
3.23,1,-15.917,16.764,-1.883,2.355,6.168,-31.999,-29.577,-27.712,-32.956
3.34,1,-17.313,17.508,-2.195,2.328,6.047,-31.999,-29.427,-27.112,-32.356
3.44,1,-18.716,18.836,-2.956,2.377,5.840,-31.999,-30.177,-26.062,-34.606
3.54,1,-20.120,20.504,-4.390,2.607,5.691,-31.999,-29.877,-24.862,-34.156
3.64,1,-21.762,21.493,-5.478,2.402,5.662,-31.999,-31.827,-22.612,-33.706
3.76,1,-23.306,22.925,-6.302,2.578,5.387,-31.999,-31.527,-20.662,-34.756
3.86,1,-24.884,23.994,-7.076,2.578,5.223,-31.999,-32.127,-20.962,-36.856
3.96,1,-26.631,25.246,-8.163,2.682,5.035,-31.999,-32.877,-19.762,-36.406
4.06,1,-28.106,26.262,-8.903,2.793,4.795,-31.999,-31.527,-19.162,-36.256
4.16,1,-29.137,26.588,-9.290,2.689,4.666,-31.999,-30.777,-18.712,-35.806
4.28,1,-29.947,26.926,-9.590,2.803,4.646,-31.999,-32.277,-18.412,-36.556
4.38,1,-31.020,27.465,-10.398,2.879,4.621,-31.999,-32.277,-14.962,-37.756
4.50,1,-32.503,27.669,-11.190,2.629,4.455,-31.999,-32.427,-15.112,-37.456
4.60,1,-33.974,28.146,-12.001,2.609,4.299,-31.999,-31.827,-13.762,-37.006
4.70,1,-34.756,28.534,-12.425,2.578,4.119,-31.999,-31.527,-14.212,-39.256
4.80,1,-34.511,28.679,-12.012,2.701,4.027,-31.999,-32.127,-13.162,-39.406
4.91,1,-34.053,28.856,-11.562,2.857,4.252,-31.999,-32.127,-12.862,-38.956
5.01,1,-34.288,28.802,-11.549,2.701,4.174,-31.999,-30.927,-14.362,-38.206
5.12,1,-34.522,28.904,-11.381,2.590,4.102,-31.999,-30.327,-13.762,-38.806
5.22,1,-34.877,29.331,-11.342,2.727,4.158,-31.999,-30.627,-11.662,-38.956
5.33,1,-35.827,29.680,-11.813,2.635,3.963,-31.999,-30.927,-12.112,-39.406
5.43,1,-36.784,30.074,-11.980,2.637,3.953,-31.999,-29.127,-11.662,-39.706
5.53,1,-37.528,30.246,-12.037,2.643,3.639,-31.999,-30.927,-11.662,-40.456
5.64,1,-37.976,30.016,-11.274,2.449,3.799,-31.999,-29.877,-12.112,-41.206
5.73,1,-39.057,30.622,-11.917,2.486,3.580,-31.999,-30.177,-10.462,-41.206
5.84,1,-40.262,31.086,-12.458,2.484,3.545,-31.999,-28.527,-10.312,-41.806
5.94,1,-41.341,31.304,-13.023,2.324,3.467,-31.999,-30.627,-9.712,-41.206
6.04,1,-42.389,32.843,-15.330,2.936,3.107,-31.999,-30.777,-8.362,-40.606
6.17,1,-42.854,32.901,-15.273,2.703,3.213,-31.999,-31.677,-9.262,-40.456
6.27,1,-44.110,32.856,-15.812,2.629,3.041,-31.999,-31.827,-7.612,-40.306
6.37,1,-45.399,32.834,-16.086,2.602,2.883,-31.999,-30.627,-5.812,-40.906
6.47,1,-46.434,32.677,-16.298,2.516,2.709,-31.999,-28.527,-5.962,-41.056
6.58,1,-47.031,32.514,-16.537,2.783,2.744,-31.999,-29.427,-3.112,-41.656
6.68,1,-48.625,32.093,-18.493,2.414,2.600,-31.999,-30.177,-3.112,-43.156
6.80,1,-49.315,31.865,-18.233,2.559,2.508,-31.999,-30.927,-4.162,-41.206
6.90,1,-49.399,31.688,-16.844,2.258,2.512,-31.999,-28.527,-2.062,-42.856
7.00,1,-49.665,32.431,-16.863,2.426,2.387,-31.999,-27.927,-2.212,-41.656
7.10,1,-49.548,32.718,-16.298,2.250,2.271,-31.999,-28.227,-3.412,-42.706
7.21,1,-49.809,33.028,-16.331,2.352,2.324,-31.999,-27.927,-2.662,-43.156
7.32,1,-50.352,33.197,-16.718,2.295,2.299,-31.999,-29.127,-1.912,-43.156
7.41,1,-50.175,33.227,-16.257,2.264,2.324,-31.999,-27.327,-1.612,-42.856
7.51,1,-50.569,33.792,-16.590,2.377,2.256,-31.999,-28.227,-3.112,-42.406
7.63,1,-51.520,33.917,-17.018,2.098,2.205,-31.999,-27.927,-1.162,-44.206
7.73,1,-52.054,34.093,-16.922,2.250,2.236,-31.999,-25.527,0.338,-44.056
7.83,1,-51.904,34.242,-17.296,2.316,2.008,-31.999,-28.077,-0.862,-44.356
7.93,1,-51.352,34.208,-16.668,2.199,2.406,-31.999,-28.827,-0.862,-42.856
8.03,1,-51.366,34.284,-16.638,2.092,2.297,-31.999,-26.727,-0.712,-43.156
8.14,1,-51.496,34.891,-17.049,2.377,2.176,-31.999,-28.527,-0.562,-43.606
8.25,1,-51.117,35.052,-16.864,2.123,2.301,-31.999,-28.227,-2.662,-43.156
8.35,1,-50.337,35.574,-16.376,2.295,2.219,-31.999,-27.027,-0.862,-43.306
8.47,1,-49.546,36.186,-15.502,2.588,2.234,-31.999,-28.227,-2.662,-43.456
8.57,1,-49.649,36.397,-15.859,2.539,2.365,-31.999,-28.077,-2.512,-43.606
8.67,1,-49.236,35.958,-15.474,2.059,2.477,-31.999,-27.927,-2.212,-43.756
8.78,1,-48.811,36.657,-15.320,2.437,2.371,-31.999,-27.477,-3.862,-42.706
8.88,1,-48.558,36.610,-14.929,2.422,2.492,-31.999,-28.827,-3.712,-44.356
8.98,1,-49.026,36.568,-15.410,2.234,2.402,-31.999,-28.827,-2.812,-41.806
9.08,1,-48.978,36.467,-15.461,2.104,2.348,-31.999,-28.077,-3.262,-42.106
9.20,1,-48.898,36.660,-15.518,2.305,2.467,-31.999,-30.327,-1.612,-41.056
9.30,1,-48.767,36.720,-15.584,2.148,2.441,-31.999,-28.827,-3.262,-43.606
9.40,1,-48.200,36.953,-15.234,2.363,2.510,-31.999,-30.177,-1.462,-42.406
9.50,1,-47.453,36.944,-15.290,2.105,2.502,-31.999,-29.577,-4.462,-41.806
9.62,1,-46.394,37.112,-14.363,2.322,2.754,-31.999,-27.327,-3.262,-42.106
9.72,1,-46.771,38.017,-15.199,2.660,2.576,-31.999,-30.327,-3.712,-41.356
9.82,1,-46.311,37.932,-14.983,2.346,2.650,-31.999,-28.827,-4.762,-41.356
9.92,1,-45.113,37.645,-13.481,2.207,2.783,-31.999,-30.327,-5.662,-43.306
10.03,1,-45.224,38.090,-13.762,2.437,2.725,-31.999,-29.427,-5.362,-43.156
10.13,1,-45.247,37.763,-13.915,2.131,2.756,-31.999,-28.677,-5.362,-43.156
10.25,1,-44.424,38.349,-13.831,2.572,2.762,-31.999,-28.227,-4.612,-42.706
10.35,1,-43.377,38.479,-13.490,2.625,2.891,-31.999,-30.627,-6.562,-41.656
10.45,1,-43.350,38.229,-13.423,2.277,2.951,-31.999,-28.227,-6.112,-41.656
10.55,1,-44.495,38.478,-14.453,2.379,2.891,-31.999,-30.927,-5.062,-41.956
10.65,1,-44.745,38.277,-14.767,2.205,2.766,-31.999,-31.077,-4.762,-42.106
10.77,1,-43.134,38.670,-13.664,2.389,3.008,-31.999,-30.327,-5.662,-42.106
10.88,1,-41.858,39.227,-12.736,2.609,3.020,-31.999,-29.877,-6.562,-41.656
10.98,1,-42.156,39.523,-13.208,2.406,3.094,-31.999,-31.077,-6.712,-40.606
11.08,1,-41.571,39.712,-13.015,2.426,3.049,-31.999,-29.877,-8.212,-40.156
11.18,1,-40.001,39.515,-11.578,2.674,3.113,-31.999,-30.627,-8.212,-40.906
11.28,1,-39.104,39.221,-10.994,2.307,3.281,-31.999,-30.327,-10.312,-41.806
11.40,1,-37.401,38.564,-10.161,2.146,3.361,-31.999,-30.327,-9.862,-41.056
11.50,1,-35.858,38.627,-9.383,2.656,3.703,-31.999,-29.877,-11.662,-41.206
11.61,1,-35.974,38.979,-10.490,2.494,3.695,-31.999,-30.777,-11.062,-41.056
11.71,1,-34.533,38.806,-9.931,2.354,3.643,-31.999,-30.627,-12.412,-39.706
11.82,1,-31.901,38.525,-8.048,2.502,4.066,-31.999,-30.777,-13.462,-39.556
11.90,1,-30.133,38.439,-6.993,2.432,4.191,-31.999,-30.327,-12.712,-39.256
12.03,1,-29.473,38.526,-6.636,2.490,4.342,-31.999,-30.927,-14.062,-38.656
12.13,1,-28.747,38.651,-6.640,2.328,4.178,-31.999,-30.327,-15.262,-38.506
12.24,1,-26.911,37.952,-5.232,2.240,4.492,-31.999,-31.077,-16.462,-39.256
12.34,1,-24.816,37.583,-3.983,2.451,4.555,-31.999,-29.877,-17.062,-38.206
12.43,1,-22.742,36.995,-2.815,2.471,4.764,-31.999,-29.877,-20.512,-37.456
12.53,1,-20.870,35.948,-2.129,2.389,4.916,-31.999,-29.577,-20.662,-36.556
12.63,1,-18.743,35.738,-2.109,2.406,4.984,-31.999,-31.677,-20.512,-36.106
12.75,1,-16.053,34.994,-1.271,2.475,5.537,-31.999,-30.927,-23.662,-34.156
12.85,1,-13.072,33.733,-0.471,2.350,5.834,-31.999,-30.177,-23.662,-33.406
12.95,1,-10.282,31.664,-0.162,1.906,6.191,-31.999,-30.627,-26.062,-33.106
13.05,1,-6.620,30.722,0.484,2.740,6.322,-31.999,-31.677,-28.312,-31.306
13.17,1,-3.086,28.491,1.445,2.795,6.535,-31.999,-30.627,-31.012,-29.056
13.27,1,-0.512,26.242,1.357,2.414,6.662,-31.999,-31.077,-31.612,-26.956
13.37,1,1.981,22.419,1.627,2.678,7.033,-31.999,-31.077,-33.562,-25.156
13.49,1,2.751,16.578,1.710,2.576,7.066,-31.999,-30.627,-35.062,-25.306
13.59,1,3.387,12.396,1.457,2.146,7.051,-31.999,-30.177,-35.812,-26.056
13.69,1,5.170,12.554,1.294,2.109,7.191,-31.999,-31.527,-35.512,-22.156
13.79,1,7.351,14.133,1.098,3.135,7.086,-31.999,-31.527,-36.712,-20.656
13.90,1,7.358,9.772,0.597,2.406,7.223,-31.999,-31.827,-37.162,-18.856
14.01,1,7.394,6.424,0.411,2.541,7.182,-31.999,-30.927,-36.112,-20.056
14.10,1,6.836,2.400,0.336,2.684,7.313,-31.999,-30.327,-38.662,-20.656
14.20,1,5.009,-4.294,0.018,2.674,7.303,-31.999,-28.677,-38.512,-21.256
14.32,1,3.235,-9.949,-0.315,2.004,7.424,-31.999,-27.927,-38.962,-20.806
14.42,1,2.421,-10.317,-0.564,2.137,7.543,-31.999,-27.327,-39.562,-22.456
14.52,1,1.910,-9.676,-0.346,2.324,7.336,-31.999,-27.777,-38.662,-21.856
14.63,1,1.874,-8.496,-0.149,2.607,7.285,-31.999,-27.027,-38.362,-22.156
14.73,1,1.857,-7.887,0.055,2.393,7.391,-31.999,-26.727,-38.512,-20.806
14.83,1,1.688,-7.303,0.323,2.473,7.395,-31.999,-26.577,-41.512,-21.856
14.95,1,1.414,-7.162,0.542,2.338,7.240,-31.999,-25.977,-39.262,-23.056
15.05,1,1.329,-6.601,0.814,2.584,7.307,-31.999,-26.577,-38.362,-19.906
15.15,1,0.994,-6.378,0.884,2.336,7.395,-31.999,-26.577,-39.112,-20.656
15.25,1,0.678,-6.188,0.927,2.229,7.369,-31.999,-25.827,-39.562,-21.106
15.35,1,0.584,-5.697,1.053,2.316,7.307,-31.999,-26.277,-40.612,-22.156
15.47,1,0.535,-5.090,1.168,2.461,7.381,-31.999,-26.277,-39.562,-22.156
15.57,1,0.388,-4.644,1.216,2.398,7.279,-31.999,-25.977,-38.962,-22.306
15.67,1,0.166,-4.317,1.129,2.402,7.354,-31.999,-25.827,-39.112,-22.456
15.77,1,0.000,-3.941,1.031,2.361,7.422,-31.999,-25.227,-38.512,-22.306
15.89,1,-0.155,-3.767,1.075,2.369,7.396,-31.999,-26.427,-39.262,-23.056
15.99,1,-0.247,-3.666,1.342,2.428,7.305,-31.999,-25.077,-39.862,-22.906
16.09,1,-0.318,-3.579,1.552,2.402,7.359,-31.999,-27.327,-38.662,-23.656
16.20,1,-0.310,-3.542,1.894,2.309,7.301,-31.999,-25.977,-39.262,-22.756
16.30,1,-0.297,-3.375,2.141,2.279,7.365,-31.999,-25.527,-39.862,-24.406
16.40,1,-0.161,-3.140,2.434,2.297,7.334,-31.999,-26.277,-38.362,-23.656
16.51,1,0.065,-3.014,2.805,2.320,7.283,-31.999,-25.827,-40.612,-23.206
