time,IMU#,roll,pitch,yaw,accelx,accely,accelz,compassx,compassy,compassz
0.13,1,-0.052,0.001,-1.476,1.959,7.691,0.994,-8.250,-26.100,-44.700
0.22,1,0.071,-0.291,-1.746,1.879,7.744,0.867,-8.100,-26.700,-44.550
0.31,1,0.137,-0.208,-1.954,1.926,7.717,1.004,-8.100,-25.950,-45.600
0.44,1,0.229,0.133,-2.105,2.023,7.670,0.969,-9.150,-25.500,-43.050
0.52,1,0.235,0.431,-2.238,2.205,7.719,0.959,-6.750,-27.750,-45.150
0.63,1,0.155,0.323,-2.339,2.148,7.664,0.900,-8.100,-26.700,-44.550
0.75,1,0.103,0.049,-2.428,1.969,7.615,0.881,-8.250,-27.300,-43.650
0.85,1,0.094,-0.145,-2.406,1.980,7.525,0.930,-7.350,-25.950,-45.300
0.95,1,0.075,-0.051,-2.228,1.937,7.566,0.955,-9.150,-27.150,-44.250
1.05,1,0.085,0.363,-2.011,2.000,7.752,0.777,-8.100,-27.150,-44.550
1.17,1,0.268,0.633,-1.848,2.020,7.629,0.867,-7.800,-26.550,-45.150
1.26,1,0.431,0.678,-1.702,1.988,7.670,0.930,-6.750,-27.750,-45.450
1.38,1,0.444,0.706,-1.473,1.906,7.781,0.996,-7.050,-26.550,-44.700
1.48,1,0.332,0.752,-1.557,1.889,7.639,0.980,-7.050,-28.500,-45.150
1.58,1,0.185,0.752,-1.849,1.980,7.723,0.791,-7.800,-27.300,-45.900
1.68,1,0.188,0.685,-1.951,2.021,7.848,0.896,-6.300,-25.800,-45.450
1.79,1,0.149,0.570,-2.184,2.045,7.613,0.883,-7.350,-25.950,-46.050
1.90,1,0.163,0.367,-2.355,1.965,7.600,0.885,-8.250,-26.550,-42.900
1.99,1,0.161,0.339,-2.393,2.064,7.750,0.926,-6.900,-26.700,-44.550
2.10,1,0.104,0.356,-2.496,2.039,7.639,1.025,-8.400,-26.400,-45.300
2.21,1,-0.003,0.470,-2.558,2.135,7.646,0.939,-7.650,-28.350,-45.600
2.31,1,-0.148,0.390,-2.585,1.939,7.611,0.975,-6.750,-25.050,-44.400
2.41,1,-0.292,0.345,-2.602,1.875,7.613,0.951,-7.650,-26.700,-44.550
2.52,1,-0.387,0.415,-2.676,1.920,7.615,1.000,-7.350,-25.500,-44.850
2.62,1,-0.461,0.483,-2.828,1.984,7.654,1.035,-9.150,-24.750,-43.800
2.73,1,-0.507,0.467,-3.228,2.057,7.631,0.912,-8.250,-25.350,-45.900
2.84,1,-0.517,0.473,-3.343,2.004,7.688,1.057,-8.550,-27.750,-44.400
2.93,1,-0.619,0.548,-3.408,1.986,7.686,1.051,-6.900,-25.950,-46.050
3.04,1,-0.769,0.674,-3.445,1.979,7.648,1.055,-6.900,-25.200,-44.850
3.14,1,-0.913,0.686,-3.674,1.941,7.717,1.189,-7.650,-26.700,-46.350
3.24,1,-1.364,0.716,-3.814,1.951,7.814,1.441,-8.100,-25.950,-44.850
3.36,1,-2.601,0.744,-4.330,1.619,7.729,2.197,-7.050,-26.100,-45.900
3.45,1,-5.151,1.187,-5.962,1.934,7.873,2.391,-6.150,-24.450,-48.300
3.56,1,-9.001,1.773,-7.485,1.990,7.898,2.699,-8.250,-24.150,-49.950
3.67,1,-13.743,2.416,-8.134,2.100,7.730,2.965,-5.700,-23.250,-51.900
3.77,1,-18.877,2.845,-8.642,1.646,7.412,3.408,-5.400,-19.350,-57.150
3.87,1,-24.103,2.620,-9.923,1.672,6.969,3.959,-6.150,-16.950,-60.150
3.99,1,-29.208,2.490,-10.758,1.736,6.586,4.729,-6.600,-15.000,-63.450
4.08,1,-34.537,3.221,-10.721,1.393,6.203,5.049,-3.300,-12.450,-65.400
4.19,1,-39.728,4.238,-10.579,1.344,5.715,5.629,-1.800,-6.600,-69.600
4.29,1,-44.935,5.319,-10.406,0.973,5.232,6.375,-0.150,-4.050,-71.550
4.40,1,-50.209,6.185,-10.695,0.691,4.686,6.703,0.900,-0.150,-73.050
4.50,1,-55.388,5.985,-11.511,0.707,4.023,6.848,1.800,1.500,-75.450
4.61,1,-60.050,5.167,-12.232,0.658,3.268,6.893,0.750,8.550,-76.650
4.73,1,-64.002,4.655,-12.728,0.619,2.793,7.305,3.000,10.500,-76.950
4.82,1,-67.570,4.662,-13.021,0.340,2.328,7.432,2.400,13.800,-78.300
4.92,1,-70.895,4.803,-13.223,0.084,1.826,7.742,3.900,16.950,-77.850
5.04,1,-74.001,4.621,-13.455,0.109,1.449,7.807,3.900,19.650,-79.050
5.14,1,-76.984,4.079,-13.589,0.158,0.891,8.002,4.050,22.650,-78.450
5.24,1,-79.887,3.707,-13.804,0.143,0.721,8.244,3.450,25.950,-76.050
5.35,1,-83.115,4.163,-14.212,-0.285,0.344,8.508,4.650,27.150,-79.050
5.45,1,-86.883,4.103,-14.420,-0.438,-0.131,8.316,8.400,31.500,-75.300
5.56,1,-91.096,4.155,-14.901,-0.607,-0.564,8.291,7.800,35.550,-76.950
5.66,1,-95.319,3.144,-15.517,-0.594,-1.291,7.582,7.650,37.650,-76.350
5.77,1,-98.945,2.242,-16.229,-0.389,-2.049,7.258,8.850,42.000,-74.100
5.88,1,-102.006,1.366,-16.657,-0.297,-2.424,7.197,7.500,44.550,-71.400
5.98,1,-104.271,0.462,-16.968,-0.248,-2.816,7.191,7.800,48.000,-71.700
6.08,1,-106.258,0.326,-17.324,-0.275,-3.195,7.125,8.400,49.800,-70.050
6.18,1,-107.705,-0.357,-17.178,-0.357,-3.316,7.447,7.650,49.500,-70.500
6.29,1,-109.193,-1.010,-16.940,-0.453,-3.555,7.500,7.500,51.150,-69.150
6.40,1,-110.788,-1.349,-16.962,-0.393,-3.645,7.332,8.250,53.100,-66.900
6.48,1,-112.412,-1.747,-16.518,-0.342,-3.914,6.830,6.300,53.550,-67.350
6.59,1,-113.763,-1.787,-16.030,-0.500,-3.969,6.893,8.850,54.600,-65.700
6.72,1,-114.997,-1.831,-15.636,-0.629,-4.104,6.813,7.500,57.000,-65.400
6.81,1,-116.021,-2.270,-15.009,-0.451,-4.270,6.660,7.350,55.350,-64.950
6.91,1,-116.875,-2.367,-14.671,-0.590,-4.479,6.609,6.750,59.850,-63.300
7.01,1,-117.405,-2.555,-14.281,-0.666,-4.492,6.770,8.100,58.500,-62.250
7.14,1,-117.849,-2.668,-13.940,-0.680,-4.545,6.580,6.600,59.550,-63.450
7.22,1,-118.111,-2.994,-13.454,-0.555,-4.578,6.527,8.400,59.250,-61.650
7.33,1,-118.358,-2.835,-13.243,-0.723,-4.457,6.904,7.500,59.100,-62.550
7.43,1,-118.936,-2.444,-13.126,-0.850,-4.611,6.531,8.100,59.250,-61.950
7.53,1,-119.220,-2.721,-12.657,-0.580,-4.771,6.303,8.550,59.850,-62.550
7.64,1,-119.172,-2.662,-12.650,-0.721,-4.678,6.559,10.350,60.750,-63.000
7.75,1,-119.197,-2.391,-12.630,-0.721,-4.773,6.420,7.800,60.600,-61.350
7.85,1,-119.386,-2.114,-12.458,-0.666,-4.664,6.486,9.150,60.450,-60.450
7.95,1,-119.453,-1.539,-12.605,-0.926,-4.705,6.660,9.600,60.000,-61.650
8.07,1,-119.487,-1.513,-12.201,-1.049,-4.682,6.604,10.350,60.450,-61.950
8.17,1,-119.440,-1.827,-11.694,-0.979,-4.686,6.666,9.750,59.850,-60.300
8.26,1,-119.472,-1.942,-11.359,-0.848,-4.744,6.613,8.850,60.450,-61.950
8.37,1,-119.533,-1.911,-11.040,-0.803,-4.732,6.475,9.600,59.550,-61.650
8.47,1,-119.545,-1.806,-10.699,-0.889,-4.740,6.584,10.050,60.600,-61.800
8.58,1,-119.459,-1.917,-10.235,-0.838,-4.646,6.545,11.850,58.800,-62.250
8.69,1,-119.459,-1.913,-9.761,-0.971,-4.723,6.594,10.050,59.850,-61.350
8.79,1,-119.526,-1.855,-9.361,-0.914,-4.699,6.400,11.400,60.000,-61.950
8.90,1,-119.524,-1.879,-8.932,-0.939,-4.754,6.719,9.600,60.000,-60.900
8.99,1,-119.526,-2.005,-8.625,-0.867,-4.646,6.600,10.350,59.250,-61.650
9.11,1,-119.605,-1.973,-8.316,-1.012,-4.723,6.547,9.750,59.100,-61.800
9.21,1,-119.636,-2.144,-8.023,-0.814,-4.686,6.533,9.600,59.550,-61.950
9.32,1,-119.729,-2.192,-7.838,-0.918,-4.684,6.535,8.550,61.050,-61.800
9.43,1,-119.821,-2.371,-7.499,-0.945,-4.705,6.488,9.750,60.150,-60.600
9.52,1,-119.881,-2.580,-7.057,-0.898,-4.736,6.520,10.500,60.600,-61.050
9.63,1,-119.924,-2.687,-6.601,-0.846,-4.746,6.525,10.050,60.150,-61.050
9.74,1,-119.964,-2.725,-6.245,-0.877,-4.650,6.551,10.650,60.000,-60.900
9.84,1,-120.024,-2.905,-5.690,-0.916,-4.789,6.480,9.300,60.150,-61.050
9.94,1,-119.979,-3.064,-5.387,-0.807,-4.721,6.580,11.550,60.600,-62.550
10.04,1,-120.045,-3.125,-5.101,-0.928,-4.797,6.609,9.750,60.150,-61.350
10.15,1,-120.088,-3.203,-4.879,-0.768,-4.855,6.578,9.600,60.750,-61.950
10.25,1,-120.204,-3.214,-4.597,-0.768,-4.699,6.477,10.350,60.750,-60.900
10.36,1,-120.300,-3.163,-4.185,-0.973,-4.770,6.480,11.250,60.600,-60.600
10.47,1,-120.290,-3.211,-3.789,-0.949,-4.803,6.463,10.650,61.950,-60.450
10.58,1,-120.233,-3.191,-3.466,-0.910,-4.750,6.521,9.150,59.250,-61.200
10.68,1,-120.184,-3.116,-3.085,-0.949,-4.787,6.354,11.250,61.350,-61.050
10.78,1,-119.918,-3.052,-2.632,-0.889,-4.691,6.258,10.500,61.050,-62.100
10.88,1,-119.341,-2.923,-2.141,-0.717,-4.615,6.139,11.400,61.200,-60.450
10.99,1,-118.233,-2.515,-1.908,-0.898,-4.506,6.600,10.050,59.100,-62.850
11.09,1,-117.076,-2.007,-1.638,-0.920,-4.406,6.518,11.250,58.650,-64.050
11.19,1,-115.636,-1.788,-1.083,-0.963,-4.025,6.375,10.350,55.650,-63.450
11.30,1,-113.736,-1.114,-0.820,-1.293,-3.941,6.777,12.000,54.750,-65.850
11.41,1,-111.229,-0.649,-0.896,-1.064,-3.541,7.258,12.450,54.000,-66.900
11.51,1,-108.768,-0.064,-0.977,-0.953,-3.199,7.047,10.650,51.450,-67.500
11.61,1,-106.091,0.745,-0.674,-1.162,-2.996,6.996,12.450,51.150,-69.150
11.72,1,-102.684,1.321,-0.438,-1.111,-2.471,7.658,12.150,47.550,-72.300
11.83,1,-99.187,1.732,-0.177,-1.010,-2.057,7.625,11.100,43.950,-72.300
11.93,1,-95.412,2.126,0.101,-0.875,-1.283,7.523,10.050,40.200,-73.950
12.04,1,-90.804,2.276,0.543,-0.680,-0.664,6.955,9.900,36.900,-74.100
12.15,1,-84.907,3.231,0.802,-0.729,0.252,8.016,9.900,29.850,-77.100
12.25,1,-78.702,3.704,1.146,-0.609,1.256,7.994,9.600,26.400,-78.300
12.35,1,-72.404,3.233,1.473,-0.389,1.937,7.723,8.100,20.850,-78.600
12.46,1,-65.817,2.875,1.340,-0.322,2.699,7.791,6.600,15.750,-77.550
12.57,1,-59.395,3.230,1.126,-0.113,3.812,7.592,5.700,8.400,-77.550
12.67,1,-53.613,3.171,1.080,0.164,4.166,7.539,3.900,4.050,-75.300
12.76,1,-48.357,4.135,1.339,0.158,5.115,6.770,3.450,-1.650,-73.800
12.88,1,-43.548,4.305,1.600,0.055,5.256,6.699,3.150,-4.050,-72.750
12.98,1,-38.832,5.506,1.839,0.061,5.824,6.102,3.150,-9.450,-69.000
13.08,1,-34.642,6.639,2.841,0.416,6.330,5.492,3.150,-12.600,-68.250
13.19,1,-30.763,6.217,3.570,0.096,6.402,4.807,2.400,-15.000,-66.450
13.29,1,-26.641,5.099,3.255,0.344,6.629,4.465,2.250,-15.900,-64.800
13.39,1,-22.463,4.282,2.490,0.510,7.086,4.398,1.800,-19.500,-61.350
13.50,1,-18.864,3.824,1.792,0.783,7.797,3.646,-0.150,-20.100,-58.950
13.60,1,-15.743,2.653,1.331,0.736,7.813,3.303,-0.900,-22.050,-57.150
13.70,1,-12.211,1.290,-0.846,1.408,7.363,2.449,-3.000,-24.600,-53.550
13.81,1,-7.987,0.861,-1.843,0.977,7.854,2.248,-4.950,-27.150,-50.850
13.91,1,-2.722,-1.342,-8.517,2.582,7.760,1.939,-6.750,-26.550,-43.200
14.03,1,-1.029,-1.128,-3.514,1.328,7.932,2.264,-6.900,-29.550,-42.750
14.12,1,-0.391,-1.306,-1.529,1.568,8.006,1.848,-6.750,-27.750,-42.900
14.23,1,-0.849,-1.499,0.484,1.260,7.865,1.344,-8.250,-27.300,-41.700
14.32,1,-1.606,-1.605,0.395,1.631,7.654,1.004,-7.800,-27.750,-43.950
14.44,1,-2.079,-1.641,0.126,1.617,7.703,0.895,-7.350,-26.700,-43.800
14.54,1,-2.064,-1.904,-0.100,1.756,7.617,0.957,-7.350,-26.400,-44.250
14.65,1,-1.890,-2.158,0.110,1.732,7.725,1.217,-6.750,-25.800,-44.700
14.75,1,-1.738,-2.462,0.309,1.824,7.527,1.336,-8.250,-27.300,-44.400
14.86,1,-1.794,-2.591,0.247,1.678,7.750,1.248,-8.550,-26.100,-43.950
14.96,1,-1.769,-2.583,-0.231,1.889,7.652,1.232,-8.850,-27.150,-44.250
15.06,1,-1.857,-2.473,-0.080,1.742,7.641,1.178,-7.800,-26.550,-43.950
15.17,1,-1.908,-2.217,-0.151,1.828,7.686,1.107,-9.300,-27.000,-43.950
15.28,1,-1.842,-2.065,-0.295,1.822,7.627,1.189,-8.250,-25.800,-45.150
15.38,1,-1.729,-1.983,-0.390,1.854,7.775,1.178,-8.100,-26.700,-44.250
15.47,1,-1.679,-1.885,-0.499,1.826,7.688,1.246,-8.400,-27.900,-43.500
15.58,1,-1.733,-1.787,-0.517,1.865,7.643,1.143,-7.650,-27.450,-43.800
15.70,1,-1.776,-1.771,-0.464,1.830,7.695,1.119,-8.400,-25.950,-44.250
15.79,1,-1.731,-1.860,-0.487,1.805,7.660,1.078,-8.400,-25.950,-45.300
15.89,1,-1.609,-1.827,-0.383,1.787,7.670,1.184,-7.500,-27.000,-42.900
16.01,1,-1.498,-1.763,-0.363,1.859,7.641,1.156,-8.550,-25.350,-44.700
16.11,1,-1.428,-1.677,-0.445,1.840,7.695,1.162,-8.550,-26.100,-43.650
16.22,1,-1.298,-1.620,-0.562,1.867,7.656,1.143,-7.650,-27.450,-43.050
16.31,1,-1.221,-1.494,-0.684,1.896,7.707,1.137,-9.600,-26.400,-44.550
16.42,1,-1.228,-1.455,-0.779,1.943,7.666,1.133,-8.550,-27.000,-43.650
16.53,1,-1.235,-1.416,-0.859,1.834,7.660,1.125,-7.800,-26.550,-44.700
16.64,1,-1.243,-1.392,-0.951,1.779,7.695,1.168,-8.250,-25.800,-43.650
16.73,1,-1.255,-1.245,-0.997,1.793,7.758,1.127,-8.850,-26.700,-43.050
16.84,1,-1.323,-1.161,-1.102,1.885,7.627,1.139,-8.100,-26.700,-44.550
16.94,1,-1.359,-1.051,-1.155,1.896,7.695,1.045,-8.250,-25.800,-43.650
17.05,1,-1.328,-1.124,-1.159,1.854,7.691,1.078,-8.850,-25.950,-44.550
17.15,1,-1.319,-1.114,-1.118,1.889,7.742,1.125,-8.250,-25.800,-44.400
17.27,1,-1.291,-1.091,-1.129,1.775,7.723,1.105,-9.150,-26.400,-44.250
17.37,1,-1.238,-0.976,-1.187,1.910,7.754,1.150,-9.300,-25.800,-44.700
17.47,1,-1.192,-0.924,-1.294,1.881,7.689,1.121,-8.550,-27.750,-44.400
17.57,1,-1.170,-0.810,-1.555,1.988,7.768,1.164,-9.000,-25.350,-42.900
17.68,1,-1.285,-0.863,-1.607,1.869,7.703,1.174,-8.400,-25.950,-43.500
17.78,1,-1.415,-0.868,-1.683,1.877,7.689,1.043,-8.550,-26.100,-43.950
17.89,1,-1.460,-0.891,-1.680,1.885,7.822,1.049,-9.600,-27.150,-43.800
17.99,1,-1.453,-0.820,-1.655,1.945,7.666,1.174,-8.400,-25.200,-43.800
18.10,1,-1.531,-0.891,-1.656,1.836,7.707,1.184,-9.300,-27.000,-42.900
18.21,1,-1.669,-0.902,-1.695,1.848,7.658,1.131,-9.150,-25.950,-45.600
18.31,1,-1.683,-0.801,-1.799,1.887,7.674,1.088,-7.650,-25.950,-44.250
18.41,1,-1.619,-0.707,-1.904,1.941,7.652,1.184,-8.100,-25.500,-42.000
18.52,1,-1.563,-0.625,-1.936,1.961,7.680,1.207,-8.850,-26.700,-44.550
18.62,1,-1.575,-0.602,-1.917,1.895,7.584,1.209,-8.100,-25.950,-45.300
18.74,1,-1.608,-0.557,-1.886,1.850,7.664,1.119,-8.400,-26.400,-43.800
18.84,1,-1.585,-0.445,-1.818,1.936,7.684,1.133,-7.500,-27.000,-44.400
18.95,1,-1.559,-0.415,-1.801,1.986,7.803,1.209,-7.800,-26.100,-43.650
19.05,1,-1.626,-0.442,-1.769,1.920,7.689,1.260,-8.250,-27.000,-43.650
19.15,1,-1.784,-0.535,-1.869,1.836,7.664,1.127,-8.400,-26.700,-45.300
19.26,1,-1.814,-0.494,-1.911,1.830,7.611,1.168,-6.900,-25.950,-44.850
19.36,1,-1.763,-0.398,-1.967,1.861,7.697,1.170,-8.250,-25.800,-43.950
19.45,1,-1.709,-0.298,-2.091,1.922,7.723,1.213,-7.800,-25.800,-44.400
