time,IMU#,roll,pitch,yaw,accelx,accely,accelz,compassx,compassy,compassz
0.08,0,0.324,0.341,0.186,-1.961,-7.754,0.520,15.750,33.150,-34.500
0.18,0,0.201,0.123,-0.012,-1.936,-8.154,0.818,15.300,33.600,-34.200
0.27,0,-0.029,0.013,-0.002,-1.824,-7.652,0.654,14.400,34.200,-33.600
0.39,0,-0.441,-0.417,-0.690,-2.299,-7.889,0.986,14.400,31.050,-34.350
0.49,0,-0.839,-0.582,-0.626,-2.090,-7.576,0.775,16.800,32.400,-35.250
0.59,0,-1.061,-0.788,-0.652,-2.205,-7.729,0.678,17.550,33.150,-35.550
0.71,0,-1.081,-0.780,-0.338,-2.277,-7.740,0.781,16.200,31.500,-35.400
0.81,0,-0.904,-0.715,-0.032,-2.125,-7.703,0.832,14.700,33.000,-33.300
0.91,0,-0.955,-0.655,-0.279,-2.236,-7.789,0.844,15.900,31.800,-34.650
1.02,0,-1.181,-0.590,-0.353,-2.230,-7.758,0.846,16.050,31.650,-36.750
1.12,0,-1.382,-0.502,-0.279,-2.020,-7.664,0.826,16.650,32.250,-35.100
1.22,0,-1.412,-0.371,-0.153,-2.111,-7.723,0.869,15.450,33.000,-36.150
1.34,0,-1.101,-0.261,0.117,-2.084,-7.834,0.965,16.200,32.550,-34.350
1.44,0,-0.916,-0.200,0.169,-1.998,-7.822,0.840,15.150,31.800,-33.600
1.56,0,-0.865,-0.307,0.238,-2.207,-7.793,0.918,15.900,31.800,-32.850
1.66,0,-0.977,-0.382,0.348,-2.199,-7.809,0.908,14.700,33.000,-35.100
1.76,0,-0.992,-0.375,0.490,-1.918,-7.811,0.824,16.650,33.000,-34.350
1.86,0,-1.039,-0.423,0.423,-2.012,-7.865,0.811,15.450,31.050,-35.100
1.97,0,-1.034,-0.426,0.355,-2.096,-7.848,0.824,15.300,32.400,-34.500
2.08,0,-1.033,-0.362,0.405,-2.059,-7.916,0.891,15.300,33.600,-35.250
2.18,0,-1.040,-0.351,0.547,-2.145,-7.758,0.842,16.200,31.800,-35.400
2.28,0,-1.160,-0.276,0.542,-2.004,-7.744,0.814,15.450,33.000,-35.100
2.39,0,-1.213,-0.200,0.443,-1.996,-7.762,0.871,15.450,31.500,-35.850
2.51,0,-1.219,-0.126,0.260,-2.143,-7.799,0.873,16.800,34.350,-35.250
2.60,0,-1.179,-0.069,0.264,-2.049,-7.764,0.857,15.450,34.200,-35.850
2.71,0,-1.162,0.003,0.270,-1.973,-7.863,0.912,14.700,33.450,-35.850
2.81,0,-1.160,0.084,0.412,-1.930,-7.793,0.902,14.700,33.750,-35.400
2.91,0,-1.169,0.177,0.589,-1.889,-7.816,0.920,12.900,33.000,-35.400
3.02,0,-1.194,0.197,0.667,-1.957,-7.766,0.934,14.700,34.200,-35.850
3.13,0,-1.144,0.224,0.708,-1.918,-7.842,0.947,15.300,32.850,-34.500
3.24,0,-1.090,0.341,0.689,-2.072,-7.811,0.963,15.900,34.200,-35.100
3.34,0,-1.143,0.394,0.871,-1.883,-7.840,0.932,12.750,35.100,-34.950
3.44,0,-1.274,0.303,0.981,-1.941,-7.758,0.855,14.550,34.350,-37.050
3.56,0,-1.312,0.192,0.930,-1.932,-7.775,0.928,16.050,33.150,-36.300
3.66,0,-1.261,0.141,0.913,-1.914,-7.738,0.943,15.450,32.550,-34.650
3.76,0,-1.118,0.089,0.776,-1.791,-7.805,0.883,14.700,32.550,-35.850
3.86,0,-0.917,0.036,0.567,-2.014,-7.805,0.857,15.750,33.900,-34.500
3.98,0,-0.749,-0.048,0.444,-1.984,-7.889,0.838,14.550,31.950,-34.950
4.08,0,-0.697,-0.130,0.350,-2.021,-7.818,0.852,14.700,32.550,-34.650
4.18,0,-0.782,-0.113,0.417,-1.998,-7.922,0.836,16.050,33.150,-36.000
4.29,0,-0.969,-0.116,0.466,-2.029,-7.854,0.725,14.250,33.600,-36.300
4.39,0,-1.276,0.134,0.299,-2.406,-7.793,0.859,15.300,32.400,-34.200
4.50,0,-1.419,0.114,0.861,-1.361,-8.084,0.887,15.750,33.900,-35.250
4.59,0,-1.947,0.140,0.470,-2.107,-7.711,0.939,14.400,31.800,-35.850
4.71,0,-2.380,0.360,0.439,-1.857,-7.715,1.053,15.000,32.850,-36.300
4.82,0,-2.684,0.586,0.461,-2.035,-7.719,1.176,14.400,33.450,-37.200
4.93,0,-2.864,0.788,0.861,-1.727,-7.842,1.201,15.000,31.950,-36.300
5.03,0,-3.039,0.721,0.837,-1.996,-7.727,1.166,13.950,32.550,-36.150
5.13,0,-2.995,0.540,0.910,-2.139,-7.846,1.199,14.400,33.450,-36.600
5.23,0,-2.871,0.485,1.072,-2.039,-7.828,1.102,14.550,33.150,-37.500
5.34,0,-2.861,0.472,0.998,-2.127,-7.818,1.141,14.250,33.150,-37.500
5.44,0,-3.011,0.578,1.045,-2.070,-7.967,1.262,15.750,30.900,-36.300
5.56,0,-3.467,0.909,1.012,-2.178,-7.887,1.160,14.400,33.000,-37.200
5.66,0,-4.042,1.201,1.058,-1.980,-8.020,1.316,13.800,31.950,-38.250
5.76,0,-4.857,1.199,1.363,-2.123,-7.873,1.891,15.150,33.450,-38.700
5.87,0,-6.397,1.137,1.822,-1.932,-7.564,1.510,14.700,33.750,-39.900
5.98,0,-8.093,0.532,1.609,-2.086,-7.672,1.752,14.550,30.900,-40.350
6.08,0,-9.677,0.318,1.686,-2.135,-7.512,2.035,14.400,31.050,-42.000
6.18,0,-11.025,0.444,2.010,-2.336,-7.697,2.209,16.500,30.450,-44.100
6.29,0,-12.312,0.918,2.369,-2.189,-7.816,2.336,13.050,29.250,-45.900
6.39,0,-14.068,1.774,2.616,-1.887,-7.398,2.578,15.150,28.350,-46.500
6.49,0,-16.518,2.415,2.638,-1.730,-7.211,2.852,13.050,28.500,-48.450
6.61,0,-19.236,2.877,2.580,-1.738,-7.254,3.227,13.050,28.200,-49.950
6.71,0,-22.283,3.178,2.033,-1.650,-7.156,3.559,14.400,24.150,-51.600
6.81,0,-25.654,2.901,0.990,-2.236,-6.889,4.023,13.500,23.100,-53.250
6.93,0,-29.088,3.064,0.558,-1.822,-6.227,4.344,14.250,21.150,-54.750
7.03,0,-32.290,2.960,-0.205,-1.781,-5.990,4.775,14.550,18.900,-57.750
7.13,0,-35.067,2.639,-0.670,-2.012,-5.816,4.949,13.950,17.100,-58.200
7.25,0,-36.969,2.140,-1.057,-2.053,-5.861,5.414,14.550,16.200,-60.600
7.34,0,-37.658,0.798,-1.867,-2.430,-5.313,5.402,15.000,13.800,-60.300
7.46,0,-39.681,-0.160,-1.970,-2.436,-5.537,5.609,15.300,14.550,-60.600
7.56,0,-42.243,-1.468,-2.392,-2.580,-4.813,5.424,16.950,10.200,-62.250
7.66,0,-44.706,-2.166,-2.218,-2.363,-4.385,5.502,18.300,9.150,-62.100
7.76,0,-46.070,-2.866,-1.991,-2.332,-4.299,5.900,17.550,5.700,-63.150
7.86,0,-46.573,-3.084,-1.868,-2.648,-4.186,6.168,18.300,7.200,-63.600
7.98,0,-45.989,-2.939,-1.630,-2.316,-4.428,5.939,18.150,7.500,-63.000
8.08,0,-45.637,-2.780,-1.436,-2.646,-4.547,6.221,16.650,7.800,-62.250
8.19,0,-45.761,-2.914,-1.273,-2.607,-4.656,6.150,18.300,6.900,-63.150
8.29,0,-45.959,-3.266,-1.284,-2.814,-4.492,5.910,17.700,6.750,-62.250
8.40,0,-45.781,-3.294,-1.118,-2.639,-4.502,6.143,17.550,6.150,-61.350
8.49,0,-45.275,-3.287,-1.099,-2.785,-4.686,6.043,18.450,6.750,-62.700
8.61,0,-45.053,-3.420,-1.140,-2.891,-4.625,5.979,16.950,7.500,-60.750
8.71,0,-45.093,-3.423,-1.126,-2.816,-4.680,5.873,17.400,8.700,-61.950
8.82,0,-45.226,-3.444,-1.107,-2.680,-4.479,5.811,17.700,8.700,-61.950
8.93,0,-44.974,-3.395,-0.994,-2.750,-4.654,6.033,17.250,7.650,-62.100
9.03,0,-44.603,-3.266,-0.919,-3.014,-4.570,5.904,17.400,7.500,-62.700
9.13,0,-44.325,-3.068,-0.652,-2.432,-4.848,5.941,18.150,7.050,-61.950
9.24,0,-44.221,-3.072,-0.671,-2.744,-4.793,6.021,16.950,7.050,-61.500
9.35,0,-44.071,-2.984,-0.675,-2.543,-4.852,5.826,17.250,6.900,-62.550
9.46,0,-44.001,-2.907,-0.907,-2.643,-4.979,6.119,18.450,8.250,-60.450
9.56,0,-44.052,-2.761,-1.069,-2.662,-4.914,6.047,16.500,8.400,-62.100
9.66,0,-44.035,-2.457,-1.228,-2.404,-4.811,5.832,18.450,7.800,-61.950
9.77,0,-44.187,-2.481,-1.372,-2.689,-4.652,5.840,16.800,8.850,-62.550
9.87,0,-44.784,-2.660,-1.488,-2.426,-4.887,6.217,16.950,8.250,-61.950
9.98,0,-45.753,-2.730,-1.484,-2.824,-4.703,6.105,17.700,7.500,-63.000
10.08,0,-46.892,-2.904,-1.391,-2.695,-4.420,6.039,18.150,6.300,-63.000
10.20,0,-47.848,-2.971,-1.252,-2.695,-4.449,6.182,17.250,4.500,-62.850
10.30,0,-48.960,-3.102,-1.040,-2.717,-4.264,6.334,17.250,4.950,-64.350
10.40,0,-50.140,-3.450,-0.767,-2.699,-3.930,6.311,17.400,3.150,-64.500
10.50,0,-51.101,-3.679,-0.366,-2.746,-3.951,6.629,16.800,2.700,-63.600
10.61,0,-51.839,-3.834,0.094,-2.650,-3.709,6.750,17.400,1.650,-64.800
10.71,0,-52.092,-3.916,0.567,-2.824,-3.760,6.453,16.950,0.900,-65.250
10.83,0,-52.114,-3.766,1.016,-2.623,-3.795,6.553,17.550,1.050,-65.400
10.93,0,-52.140,-3.630,1.309,-2.602,-3.822,6.373,16.950,1.650,-65.250
11.03,0,-52.028,-3.556,1.454,-2.420,-3.748,6.516,17.400,0.900,-64.500
11.13,0,-51.455,-3.416,1.457,-2.705,-3.654,6.262,18.300,1.050,-65.100
11.24,0,-50.101,-3.040,1.489,-2.494,-3.977,6.395,17.400,1.650,-64.500
11.37,0,-48.147,-2.763,1.402,-2.613,-4.262,6.344,16.200,4.800,-63.450
11.47,0,-45.582,-2.497,1.377,-2.434,-4.287,5.719,16.800,5.400,-63.150
11.57,0,-42.008,-2.202,1.322,-2.467,-4.588,5.471,16.050,8.400,-63.150
11.67,0,-37.443,-1.541,1.635,-2.598,-5.289,5.234,17.700,13.200,-60.150
11.77,0,-33.013,-1.000,2.043,-2.422,-5.768,4.807,17.250,16.950,-59.100
11.87,0,-28.801,-1.010,2.302,-2.723,-6.434,4.172,18.000,20.100,-55.500
11.98,0,-24.703,-0.991,2.837,-2.467,-6.535,3.703,17.250,22.350,-52.950
12.10,0,-20.583,-1.186,3.210,-2.621,-6.697,3.148,16.800,22.350,-50.400
12.20,0,-16.374,-1.120,3.933,-2.336,-7.043,2.873,15.750,26.550,-48.150
12.30,0,-12.234,-1.112,4.159,-2.633,-7.609,2.312,16.200,28.350,-45.300
12.40,0,-8.558,-0.518,4.284,-2.361,-8.037,1.883,15.900,29.550,-42.750
12.50,0,-4.822,0.267,4.867,-1.959,-8.100,1.160,14.550,31.200,-39.000
12.61,0,-1.614,0.785,5.378,-1.916,-8.174,0.973,15.300,32.400,-38.550
12.73,0,0.819,0.703,4.947,-1.902,-8.014,0.930,15.750,35.100,-35.250
12.83,0,1.653,0.450,4.659,-1.971,-8.201,0.662,14.250,33.900,-32.250
12.93,0,1.240,0.193,4.190,-1.937,-7.953,0.568,15.750,33.600,-33.750
13.04,0,0.507,-0.181,3.627,-2.291,-7.697,0.404,13.950,34.500,-34.650
13.13,0,0.091,-0.465,3.492,-2.168,-7.803,0.715,15.150,33.450,-34.350
13.24,0,0.065,-0.482,3.925,-2.047,-7.695,0.760,15.000,32.850,-35.250
13.37,0,0.139,-0.327,4.234,-1.697,-8.014,0.656,15.000,33.150,-35.250
13.47,0,0.052,-0.356,3.479,-2.482,-7.893,0.617,16.050,33.900,-34.950
13.57,0,-0.092,-0.261,3.359,-2.297,-7.822,0.771,15.900,33.750,-35.850
13.67,0,-0.327,-0.007,3.671,-1.895,-7.742,0.729,15.150,33.750,-35.400
13.77,0,-0.674,0.383,3.614,-1.873,-7.893,0.771,13.950,32.250,-36.150
13.88,0,-0.942,0.491,3.268,-1.883,-7.846,0.900,15.900,33.750,-35.400
13.98,0,-1.054,0.702,2.849,-2.094,-7.855,0.805,15.000,34.350,-36.000
14.10,0,-1.179,0.352,2.189,-2.246,-7.736,0.896,14.550,33.150,-36.000
14.20,0,-1.504,-0.066,1.914,-1.990,-7.879,0.873,15.300,31.950,-36.750
14.30,0,-1.770,-0.220,1.427,-2.266,-7.732,0.865,15.450,31.800,-36.600
14.40,0,-1.778,-0.306,1.316,-2.154,-7.771,0.996,14.400,32.250,-35.850
14.52,0,-1.675,-0.287,1.172,-2.170,-7.785,1.062,15.000,33.150,-35.550
14.61,0,-1.522,-0.178,1.022,-2.012,-7.951,1.080,14.400,32.550,-36.600
14.71,0,-1.533,-0.106,0.572,-2.107,-7.711,0.994,14.550,32.850,-35.250
14.83,0,-1.646,-0.073,0.299,-2.207,-7.729,0.932,15.900,34.500,-35.400
14.93,0,-1.577,-0.029,0.226,-2.117,-7.979,0.975,13.500,33.900,-35.250
15.03,0,-1.452,0.015,0.213,-2.045,-7.820,0.869,15.450,33.450,-34.650
15.14,0,-1.372,-0.077,0.322,-2.025,-7.895,0.994,16.050,32.400,-35.550
15.24,0,-1.277,-0.027,0.342,-1.988,-7.803,0.867,15.900,34.500,-35.850
15.34,0,-1.258,0.042,0.216,-2.178,-7.787,0.869,16.050,33.600,-34.950
15.47,0,-1.289,0.095,0.303,-2.066,-7.779,0.867,14.550,33.150,-36.000
15.57,0,-1.362,0.203,0.346,-2.049,-7.803,0.996,16.200,33.750,-33.900
15.68,0,-1.460,0.324,0.331,-2.043,-7.842,0.934,15.150,32.550,-34.650
